time,.header.seq,.header.stamp.secs,.header.stamp.nsecs,.header.frame_id,.gps_time,.Mag.x,.Mag.y,.Mag.z,.Accel.x,.Accel.y,.Accel.z,.Gyro.x,.Gyro.y,.Gyro.z,.Temp,.Pressure
2020/02/28/11:00:07.265969,356,1582909207,265889101,vectornav,1266944425.21,0.0,0.0,0.0,-0.0962559953332,0.229998111725,-9.79278659821,-0.000411933287978,-0.00136490981095,-0.000905940309167,0.0,0.0
2020/02/28/11:00:07.287023,357,1582909207,286943902,vectornav,1266944425.23,0.0,0.0,0.0,-0.0637423321605,0.263252586126,-9.78736782074,0.000210632686503,-0.000310843111947,-0.000525638461113,0.0,0.0
2020/02/28/11:00:07.306911,358,1582909207,306868464,vectornav,1266944425.25,0.0,0.0,0.0,-0.106081657112,0.24708417058,-9.78814697266,-0.00105929956771,0.000757954316214,0.000741070136428,0.0,0.0
2020/02/28/11:00:07.325887,359,1582909207,325843267,vectornav,1266944425.27,0.0,0.0,0.0,-0.0704339891672,0.248393461108,-9.76233959198,-0.00149311195128,-0.000928288558498,0.000409114174545,0.0,0.0
2020/02/28/11:00:07.347028,360,1582909207,346979521,vectornav,1266944425.29,0.0,0.0,0.0,-0.107689298689,0.254487752914,-9.77328014374,-0.000759070040658,-0.00105927581899,-0.000224171206355,0.0,0.0
2020/02/28/11:00:07.366883,361,1582909207,366850408,vectornav,1266944425.31,0.0,0.0,0.0,-0.0947562530637,0.276861965656,-9.81514358521,-0.000784596602898,-0.000335106393322,0.00122117437422,0.0,0.0
2020/02/28/11:00:07.387021,362,1582909207,386901937,vectornav,1266944425.33,0.0,0.0,0.0,-0.0913050100207,0.276826828718,-9.79440593719,-0.00053602468688,-0.000562627566978,-0.000346573069692,0.0,0.0
2020/02/28/11:00:07.406905,363,1582909207,406847301,vectornav,1266944425.35,0.0,0.0,0.0,-0.107298187912,0.286280721426,-9.80298805237,-0.001321644173,0.000485063530505,0.000704685226083,0.0,0.0
2020/02/28/11:00:07.426868,364,1582909207,426808318,vectornav,1266944425.37,0.0,0.0,0.0,-0.0876231119037,0.274039387703,-9.80485057831,-0.000202110270038,0.000296598067507,-0.000139132142067,0.0,0.0
2020/02/28/11:00:07.446855,365,1582909207,446800664,vectornav,1266944425.39,0.0,0.0,0.0,-0.108980678022,0.290506273508,-9.77747535706,0.000297907972708,8.16921237856e-05,0.000104088336229,0.0,0.0
2020/02/28/11:00:07.466906,366,1582909207,466821887,vectornav,1266944425.41,0.0,0.0,0.0,-0.102316178381,0.274534463882,-9.81032466888,-0.000977737829089,-0.00156787177548,-0.000827578827739,0.0,0.0
2020/02/28/11:00:07.486972,367,1582909207,486876326,vectornav,1266944425.43,0.0,0.0,0.0,-0.11087552458,0.265194326639,-9.76544284821,0.000672361755278,0.000352865085006,0.000174371525645,0.0,0.0
2020/02/28/11:00:07.506824,368,1582909207,506775190,vectornav,1266944425.45,0.0,0.0,0.0,-0.0895055904984,0.287029445171,-9.76660251617,0.00129926507361,-0.000420477008447,-0.00190995819867,0.0,0.0
2020/02/28/11:00:07.526898,369,1582909207,526841929,vectornav,1266944425.47,0.0,0.0,0.0,-0.106222756207,0.253204256296,-9.77447605133,-0.00135674665216,0.000617263838649,0.000868313014507,0.0,0.0
2020/02/28/11:00:07.546913,370,1582909207,546835539,vectornav,1266944425.49,0.0,0.0,0.0,-0.10416238755,0.24597068131,-9.75824069977,0.000488831254188,-0.000874520279467,0.00166525319219,0.0,0.0
2020/02/28/11:00:07.566839,371,1582909207,566789171,vectornav,1266944425.51,0.0,0.0,0.0,-0.111116670072,0.262361884117,-9.76046276093,0.000452553271316,0.00105793704279,-0.000495448708534,0.0,0.0
2020/02/28/11:00:07.586870,372,1582909207,586790146,vectornav,1266944425.53,0.0,0.0,0.0,-0.0941321328282,0.268670618534,-9.78712940216,0.000182035902981,-0.000713720684871,-0.000801040790975,0.0,0.0
2020/02/28/11:00:07.606873,373,1582909207,606809386,vectornav,1266944425.55,0.0,0.0,0.0,-0.0715663656592,0.272345691919,-9.81583309174,0.000890133786015,0.000384108163416,0.000369975343347,0.0,0.0
2020/02/28/11:00:07.626847,374,1582909207,626777841,vectornav,1266944425.57,0.0,0.0,0.0,-0.106844775379,0.247788712382,-9.77822208405,0.000591868185438,-0.000525874551386,2.1094456315e-05,0.0,0.0
2020/02/28/11:00:07.646840,375,1582909207,646809180,vectornav,1266944425.59,0.0,0.0,0.0,-0.126109659672,0.241964742541,-9.81238269806,-0.000275623053312,-0.000382110709324,3.80426645279e-05,0.0,0.0
2020/02/28/11:00:07.666875,376,1582909207,666844616,vectornav,1266944425.61,0.0,0.0,0.0,-0.0872073248029,0.264789909124,-9.80695724487,-0.000868938630447,0.000372367212549,-0.00120451115072,0.0,0.0
2020/02/28/11:00:07.686887,377,1582909207,686813619,vectornav,1266944425.63,0.0,0.0,0.0,-0.094182446599,0.251635730267,-9.77273654938,0.000819912063889,-0.00103202951141,0.000152821652591,0.0,0.0
2020/02/28/11:00:07.706849,378,1582909207,706808651,vectornav,1266944425.65,0.0,0.0,0.0,-0.0864976495504,0.277349025011,-9.76910877228,-7.72002385929e-05,-6.96573406458e-05,0.000652368180454,0.0,0.0
2020/02/28/11:00:07.726863,379,1582909207,726801434,vectornav,1266944425.67,0.0,0.0,0.0,-0.0982320085168,0.246367320418,-9.79703807831,0.000365940388292,0.000606097979471,-0.000145185738802,0.0,0.0
2020/02/28/11:00:07.746805,380,1582909207,746758885,vectornav,1266944425.69,0.0,0.0,0.0,-0.121933169663,0.250204086304,-9.77198886871,-0.000238311826251,-0.000514805084094,-0.000848504714668,0.0,0.0
2020/02/28/11:00:07.766727,381,1582909207,766692193,vectornav,1266944425.71,0.0,0.0,0.0,-0.101922169328,0.253743261099,-9.79141616821,-0.00077897135634,-0.000925927655771,0.000284028239548,0.0,0.0
2020/02/28/11:00:07.786940,382,1582909207,786876051,vectornav,1266944425.73,0.0,0.0,0.0,-0.094026401639,0.243339449167,-9.79463863373,-0.000230949081015,-0.00110365869477,-0.000658651813865,0.0,0.0
2020/02/28/11:00:07.806735,383,1582909207,806690702,vectornav,1266944425.75,0.0,0.0,0.0,-0.0935910344124,0.266666829586,-9.75615406036,-0.000882910331711,-0.000882430933416,0.00036907568574,0.0,0.0
2020/02/28/11:00:07.826858,384,1582909207,826780287,vectornav,1266944425.77,0.0,0.0,0.0,-0.0824389606714,0.252064943314,-9.78820133209,-0.00119519734289,-0.000293495133519,-0.000606923364103,0.0,0.0
2020/02/28/11:00:07.846781,385,1582909207,846724362,vectornav,1266944425.79,0.0,0.0,0.0,-0.113678365946,0.269254386425,-9.78604602814,-0.000616318313405,-0.000597430858761,-0.00117962248623,0.0,0.0
2020/02/28/11:00:07.866737,386,1582909207,866698732,vectornav,1266944425.81,0.0,0.0,0.0,-0.11901883781,0.294973701239,-9.76305198669,0.000216982560232,-0.000373651273549,0.00013605505228,0.0,0.0
2020/02/28/11:00:07.886848,387,1582909207,886766774,vectornav,1266944425.83,0.0,0.0,0.0,-0.081601947546,0.262720257044,-9.7858915329,-0.000653662078548,-0.000989652238786,-2.95490026474e-05,0.0,0.0
2020/02/28/11:00:07.906803,388,1582909207,906710602,vectornav,1266944425.85,0.0,0.0,0.0,-0.0979029983282,0.247864305973,-9.80633449554,0.00077643035911,-0.00128515204415,0.000433881767094,0.0,0.0
2020/02/28/11:00:07.926842,389,1582909207,926720934,vectornav,1266944425.87,0.0,0.0,0.0,-0.0820921510458,0.261009663343,-9.79110622406,-0.00156701006927,0.000900228042156,0.000782184302807,0.0,0.0
2020/02/28/11:00:07.946744,390,1582909207,946689208,vectornav,1266944425.89,0.0,0.0,0.0,-0.0959954708815,0.261421829462,-9.76891994476,-0.00127888366114,-0.00109988451004,-0.000230127945542,0.0,0.0
2020/02/28/11:00:07.966674,391,1582909207,966633418,vectornav,1266944425.91,0.0,0.0,0.0,-0.0944914668798,0.27284348011,-9.79206085205,0.000369911023881,5.66279049963e-05,0.000395339913666,0.0,0.0
2020/02/28/11:00:07.986777,392,1582909207,986740345,vectornav,1266944425.93,0.0,0.0,0.0,-0.0703417286277,0.257970035076,-9.79276180267,-0.000469104212243,-0.00164891965687,-0.00106873363256,0.0,0.0
2020/02/28/11:00:08.006786,393,1582909208,6700825,vectornav,1266944425.95,0.0,0.0,0.0,-0.0972137227654,0.256708085537,-9.79485988617,0.000169681210537,-0.000505574280396,-0.000821809284389,0.0,0.0
2020/02/28/11:00:08.026676,394,1582909208,26633748,vectornav,1266944425.97,0.0,0.0,0.0,-0.0957154482603,0.247114852071,-9.77898693085,-0.000370041962015,0.000446548918262,-0.000665261410177,0.0,0.0
2020/02/28/11:00:08.046700,395,1582909208,46659016,vectornav,1266944425.99,0.0,0.0,0.0,-0.11811555177,0.283621996641,-9.78989887238,-0.000352735107299,0.000173421343789,0.000518773682415,0.0,0.0
2020/02/28/11:00:08.066691,396,1582909208,66656198,vectornav,1266944426.01,0.0,0.0,0.0,-0.101863756776,0.265923351049,-9.76190662384,-6.02951622568e-05,0.000455742701888,-0.00033566635102,0.0,0.0
2020/02/28/11:00:08.086720,397,1582909208,86676937,vectornav,1266944426.03,0.0,0.0,0.0,-0.0945387557149,0.264417529106,-9.77318668365,-0.00121250189841,2.65804119408e-05,-0.000279913656414,0.0,0.0
2020/02/28/11:00:08.106723,398,1582909208,106628945,vectornav,1266944426.05,0.0,0.0,0.0,-0.0587711855769,0.30422821641,-9.78302669525,0.000282344524749,-0.000165759585798,7.6899304986e-05,0.0,0.0
2020/02/28/11:00:08.126647,399,1582909208,126603612,vectornav,1266944426.07,0.0,0.0,0.0,-0.0921951159835,0.259538024664,-9.75416851044,-0.000486090604682,0.000122717581689,0.00132077373564,0.0,0.0
2020/02/28/11:00:08.146719,400,1582909208,146644341,vectornav,1266944426.09,0.0,0.0,0.0,-0.0949138775468,0.268408685923,-9.77359485626,0.000488431076519,0.00132791162468,-0.00059799849987,0.0,0.0
2020/02/28/11:00:08.166665,401,1582909208,166607542,vectornav,1266944426.11,0.0,0.0,0.0,-0.0841162279248,0.261109769344,-9.77580356598,0.000215353793465,0.000645080581307,0.000264659523964,0.0,0.0
2020/02/28/11:00:08.186712,402,1582909208,186664981,vectornav,1266944426.13,0.0,0.0,0.0,-0.0703564584255,0.232796907425,-9.77955436707,-0.00132446899079,-0.000379262492061,-0.00112863630056,0.0,0.0
2020/02/28/11:00:08.206663,403,1582909208,206625490,vectornav,1266944426.15,0.0,0.0,0.0,-0.0812779814005,0.264168083668,-9.79315567017,0.000555729435291,0.000339272199199,-0.000270461663604,0.0,0.0
2020/02/28/11:00:08.226697,404,1582909208,226658038,vectornav,1266944426.17,0.0,0.0,0.0,-0.101437449455,0.258256226778,-9.7472038269,0.00106202240568,-0.00113681075163,1.16555020213e-05,0.0,0.0
2020/02/28/11:00:08.246697,405,1582909208,246649809,vectornav,1266944426.19,0.0,0.0,0.0,-0.0838403850794,0.276827245951,-9.77228164673,-0.000522885413375,0.000565096270293,0.000308329239488,0.0,0.0
2020/02/28/11:00:08.266764,406,1582909208,266697884,vectornav,1266944426.21,0.0,0.0,0.0,-0.0838727429509,0.239933341742,-9.80114746094,0.000602653075475,0.00061628385447,0.00132886320353,0.0,0.0
2020/02/28/11:00:08.286636,407,1582909208,286585631,vectornav,1266944426.23,0.0,0.0,0.0,-0.0947853028774,0.24830840528,-9.75956821442,0.000653788913041,-0.000409586820751,-0.000413914211094,0.0,0.0
2020/02/28/11:00:08.306657,408,1582909208,306609339,vectornav,1266944426.25,0.0,0.0,0.0,-0.0757873207331,0.250089198351,-9.75823783875,-0.000941039295867,-0.00157878547907,-0.000301179476082,0.0,0.0
2020/02/28/11:00:08.326669,409,1582909208,326607885,vectornav,1266944426.27,0.0,0.0,0.0,-0.0908433496952,0.256630957127,-9.79461669922,-0.000943123130128,-0.00083235069178,-0.000159988179803,0.0,0.0
2020/02/28/11:00:08.346684,410,1582909208,346605925,vectornav,1266944426.29,0.0,0.0,0.0,-0.0987450703979,0.279627740383,-9.74590492249,0.000698272022419,-0.000172870932147,-0.000321145169437,0.0,0.0
2020/02/28/11:00:08.366688,411,1582909208,366641555,vectornav,1266944426.31,0.0,0.0,0.0,-0.0796725302935,0.288005083799,-9.78959560394,-0.000818159314804,-8.51065851748e-06,-0.00105623994023,0.0,0.0
2020/02/28/11:00:08.386667,412,1582909208,386586354,vectornav,1266944426.33,0.0,0.0,0.0,-0.105233691633,0.262032687664,-9.79769802094,-0.000785738462582,0.000595297431573,0.000379933044314,0.0,0.0
2020/02/28/11:00:08.406605,413,1582909208,406554690,vectornav,1266944426.35,0.0,0.0,0.0,-0.108184590936,0.239498257637,-9.77707958221,0.00193549063988,-0.00122561538592,-0.000639374367893,0.0,0.0
2020/02/28/11:00:08.426617,414,1582909208,426553478,vectornav,1266944426.37,0.0,0.0,0.0,-0.0817352682352,0.263643950224,-9.78045082092,-0.00297492695972,0.000443765893579,-0.000267843715847,0.0,0.0
2020/02/28/11:00:08.446616,415,1582909208,446528482,vectornav,1266944426.39,0.0,0.0,0.0,-0.0740990042686,0.260311096907,-9.80200386047,-0.000641840742901,0.000935211777687,0.00083146803081,0.0,0.0
2020/02/28/11:00:08.466619,416,1582909208,466529520,vectornav,1266944426.41,0.0,0.0,0.0,-0.0938085913658,0.268708497286,-9.75652217865,0.00044441135833,-0.000157510396093,-0.00136588327587,0.0,0.0
2020/02/28/11:00:08.486572,417,1582909208,486541091,vectornav,1266944426.43,0.0,0.0,0.0,-0.0962506383657,0.276130318642,-9.77978038788,-0.000569668365642,0.000605151057243,-0.000256672501564,0.0,0.0
2020/02/28/11:00:08.506612,418,1582909208,506539078,vectornav,1266944426.45,0.0,0.0,0.0,-0.106344290078,0.28265440464,-9.78827381134,-0.000294133060379,5.07468357682e-05,7.67391175032e-05,0.0,0.0
2020/02/28/11:00:08.526569,419,1582909208,526529614,vectornav,1266944426.47,0.0,0.0,0.0,-0.0947057902813,0.268914788961,-9.73495006561,0.00145459966734,-0.000878191785887,-0.00111374631524,0.0,0.0
2020/02/28/11:00:08.546544,420,1582909208,546487451,vectornav,1266944426.49,0.0,0.0,0.0,-0.1196077317,0.255102545023,-9.76054859161,-0.00051877903752,-7.54329375923e-05,0.000245070084929,0.0,0.0
2020/02/28/11:00:08.566548,421,1582909208,566491102,vectornav,1266944426.51,0.0,0.0,0.0,-0.0705748349428,0.276371926069,-9.76767921448,0.000587165646721,0.000843030167744,-8.10790807009e-05,0.0,0.0
2020/02/28/11:00:08.586507,422,1582909208,586467107,vectornav,1266944426.53,0.0,0.0,0.0,-0.0775619745255,0.301260441542,-9.76164245605,0.0014451709576,-0.000611412804574,-0.00034383405,0.0,0.0
2020/02/28/11:00:08.606625,423,1582909208,606549219,vectornav,1266944426.55,0.0,0.0,0.0,-0.0773948580027,0.262266486883,-9.7547826767,6.95191556588e-06,-0.000127432402223,-0.000569485127926,0.0,0.0
2020/02/28/11:00:08.626565,424,1582909208,626502731,vectornav,1266944426.57,0.0,0.0,0.0,-0.0971007049084,0.268599808216,-9.74989891052,0.00143246748485,0.000432909000665,-0.00100349355489,0.0,0.0
2020/02/28/11:00:08.646497,425,1582909208,646444636,vectornav,1266944426.59,0.0,0.0,0.0,-0.0821677148342,0.253619104624,-9.77771377563,0.000347405148204,0.000356069300324,-0.00037332251668,0.0,0.0
2020/02/28/11:00:08.666525,426,1582909208,666448621,vectornav,1266944426.61,0.0,0.0,0.0,-0.103760048747,0.258590310812,-9.79347991943,-0.000135954585858,6.3466373831e-05,-0.000669874250889,0.0,0.0
2020/02/28/11:00:08.686530,427,1582909208,686458380,vectornav,1266944426.63,0.0,0.0,0.0,-0.0979947596788,0.266171753407,-9.81075572968,0.00191530922893,-3.21436673403e-05,-0.000220762565732,0.0,0.0
2020/02/28/11:00:08.706498,428,1582909208,706437185,vectornav,1266944426.65,0.0,0.0,0.0,-0.0800275206566,0.253085374832,-9.7533082962,0.00139415427111,-0.000928841996938,0.000826456584036,0.0,0.0
2020/02/28/11:00:08.726501,429,1582909208,726441488,vectornav,1266944426.67,0.0,0.0,0.0,-0.0756456851959,0.278977543116,-9.77683067322,0.000580141029786,-0.000486169708893,-0.00152960419655,0.0,0.0
2020/02/28/11:00:08.746503,430,1582909208,746438067,vectornav,1266944426.69,0.0,0.0,0.0,-0.0867314487696,0.273229598999,-9.77863121033,-0.000252082711086,-0.000579034211114,-0.000876408070326,0.0,0.0
2020/02/28/11:00:08.766437,431,1582909208,766406707,vectornav,1266944426.71,0.0,0.0,0.0,-0.0989652276039,0.263628304005,-9.75421524048,0.000522000365891,-0.000380885787308,0.000836621969938,0.0,0.0
2020/02/28/11:00:08.786469,432,1582909208,786404963,vectornav,1266944426.73,0.0,0.0,0.0,-0.139167964458,0.254346907139,-9.77894687653,-0.000902705534827,0.000602415530011,-7.55172222853e-05,0.0,0.0
2020/02/28/11:00:08.806440,433,1582909208,806397609,vectornav,1266944426.75,0.0,0.0,0.0,-0.101463548839,0.295285880566,-9.78202342987,0.000453538144939,0.000225588912144,0.00140774436295,0.0,0.0
2020/02/28/11:00:08.826483,434,1582909208,826446735,vectornav,1266944426.77,0.0,0.0,0.0,-0.0643422529101,0.25802859664,-9.77707672119,0.00076093833195,0.000639915000647,-0.000397358089685,0.0,0.0
2020/02/28/11:00:08.846560,435,1582909208,846472817,vectornav,1266944426.79,0.0,0.0,0.0,-0.0880554765463,0.247582271695,-9.77378940582,-0.000432372529758,0.00187959615141,0.000766983255744,0.0,0.0
2020/02/28/11:00:08.866494,436,1582909208,866445977,vectornav,1266944426.81,0.0,0.0,0.0,-0.101434834301,0.24332948029,-9.79690074921,-0.00068163475953,0.000702927820385,-0.000650059431791,0.0,0.0
2020/02/28/11:00:08.886457,437,1582909208,886373222,vectornav,1266944426.83,0.0,0.0,0.0,-0.103316411376,0.257877111435,-9.7642326355,-0.000270570017165,-0.0011489756871,9.05077904463e-05,0.0,0.0
2020/02/28/11:00:08.906473,438,1582909208,906405179,vectornav,1266944426.85,0.0,0.0,0.0,-0.0923679098487,0.277968734503,-9.7992067337,-0.00113060115837,-0.000613061245531,0.000833099707961,0.0,0.0
2020/02/28/11:00:08.926452,439,1582909208,926410054,vectornav,1266944426.87,0.0,0.0,0.0,-0.0741649791598,0.258272618055,-9.82340145111,-0.000370367488358,-8.99636652321e-05,-0.00038480386138,0.0,0.0
2020/02/28/11:00:08.946518,440,1582909208,946464463,vectornav,1266944426.89,0.0,0.0,0.0,-0.0620230808854,0.277906417847,-9.77893733978,0.00165240187198,-0.000786771997809,0.00034330971539,0.0,0.0
2020/02/28/11:00:08.966558,441,1582909208,966505175,vectornav,1266944426.91,0.0,0.0,0.0,-0.0907792747021,0.272849440575,-9.78293418884,-0.000934267125558,-0.000120466807857,-0.000193824991584,0.0,0.0
2020/02/28/11:00:08.986494,442,1582909208,986404409,vectornav,1266944426.93,0.0,0.0,0.0,-0.0818585157394,0.248395904899,-9.74529075623,-0.0002342784137,-0.00047160545364,7.82944262028e-05,0.0,0.0
2020/02/28/11:00:09.006435,443,1582909209,6383674,vectornav,1266944426.95,0.0,0.0,0.0,-0.0926737934351,0.295607209206,-9.7152633667,0.000386450323276,-0.000337205827236,0.000739168375731,0.0,0.0
2020/02/28/11:00:09.026453,444,1582909209,26388485,vectornav,1266944426.97,0.0,0.0,0.0,-0.0837303251028,0.259053111076,-9.76278781891,-0.000685785664245,0.00011048745364,-0.00119337439537,0.0,0.0
2020/02/28/11:00:09.046395,445,1582909209,46348469,vectornav,1266944426.99,0.0,0.0,0.0,-0.0837385952473,0.25465297699,-9.8070230484,9.62101621553e-05,0.00061263423413,-0.000641725957394,0.0,0.0
2020/02/28/11:00:09.066415,446,1582909209,66370964,vectornav,1266944427.01,0.0,0.0,0.0,-0.089339017868,0.27086147666,-9.8023557663,-0.000721464399248,0.000392482150346,-0.00130682066083,0.0,0.0
2020/02/28/11:00:09.086475,447,1582909209,86406541,vectornav,1266944427.03,0.0,0.0,0.0,-0.0705463141203,0.267806857824,-9.75979042053,-0.00154068158008,0.00121364509687,-0.000239652581513,0.0,0.0
2020/02/28/11:00:09.106432,448,1582909209,106395507,vectornav,1266944427.05,0.0,0.0,0.0,-0.092255577445,0.258965998888,-9.79755783081,-0.000553005898837,0.000345138134435,-0.00140413828194,0.0,0.0
2020/02/28/11:00:09.126446,449,1582909209,126389754,vectornav,1266944427.07,0.0,0.0,0.0,-0.103599302471,0.28091314435,-9.75301742554,0.000530702876858,-0.00138696748763,0.000647174194455,0.0,0.0
2020/02/28/11:00:09.146486,450,1582909209,146403374,vectornav,1266944427.09,0.0,0.0,0.0,-0.0962180048227,0.286195725203,-9.71883010864,-0.000853851379361,-4.41172160208e-05,-0.000256737694144,0.0,0.0
2020/02/28/11:00:09.166419,451,1582909209,166372521,vectornav,1266944427.11,0.0,0.0,0.0,-0.0955147668719,0.268420308828,-9.77666664124,-0.00057755690068,0.000663429265842,7.6973810792e-05,0.0,0.0
2020/02/28/11:00:09.186463,452,1582909209,186351798,vectornav,1266944427.13,0.0,0.0,0.0,-0.0605207793415,0.28537979722,-9.78057479858,0.000690286571626,-0.000694420887157,-0.000389410182834,0.0,0.0
2020/02/28/11:00:09.206358,453,1582909209,206306802,vectornav,1266944427.15,0.0,0.0,0.0,-0.0801608264446,0.276073813438,-9.75714683533,-0.00070630555274,-0.000103287398815,0.00157441478223,0.0,0.0
2020/02/28/11:00:09.226395,454,1582909209,226293561,vectornav,1266944427.17,0.0,0.0,0.0,-0.0851012766361,0.251629918814,-9.7998046875,-1.81823270395e-06,-0.000188530189916,0.000537285581231,0.0,0.0
2020/02/28/11:00:09.246433,455,1582909209,246307481,vectornav,1266944427.19,0.0,0.0,0.0,-0.0902129560709,0.245953917503,-9.77282142639,0.000285574235022,0.000386838801205,0.00051767937839,0.0,0.0
2020/02/28/11:00:09.266397,456,1582909209,266367151,vectornav,1266944427.21,0.0,0.0,0.0,-0.0600121356547,0.24540938437,-9.79932785034,0.00171423656866,0.000852666329592,-0.000275063328445,0.0,0.0
2020/02/28/11:00:09.286435,457,1582909209,286363346,vectornav,1266944427.23,0.0,0.0,0.0,-0.0918161869049,0.242747962475,-9.79211616516,0.00153343973216,0.00114620965905,0.00127480085939,0.0,0.0
2020/02/28/11:00:09.306419,458,1582909209,306311565,vectornav,1266944427.25,0.0,0.0,0.0,-0.0916183590889,0.269384741783,-9.76175117493,-0.00018515571719,-0.000211540376768,-0.000328004360199,0.0,0.0
2020/02/28/11:00:09.326375,459,1582909209,326334264,vectornav,1266944427.27,0.0,0.0,0.0,-0.109458446503,0.253812730312,-9.81876945496,-0.000642246275675,-0.000767058925703,0.000328999944031,0.0,0.0
2020/02/28/11:00:09.346422,460,1582909209,346347666,vectornav,1266944427.29,0.0,0.0,0.0,-0.0959662646055,0.267200052738,-9.78706550598,0.000386675237678,0.000322277192026,0.000353457406163,0.0,0.0
2020/02/28/11:00:09.366315,461,1582909209,366284354,vectornav,1266944427.31,0.0,0.0,0.0,-0.102863073349,0.270453035831,-9.7548789978,0.000925432250369,-0.00161813036539,-7.50739127398e-06,0.0,0.0
2020/02/28/11:00:09.386379,462,1582909209,386273891,vectornav,1266944427.33,0.0,0.0,0.0,-0.0872090682387,0.263475716114,-9.77683734894,-0.000742902164347,0.000565391499549,0.000776576809585,0.0,0.0
2020/02/28/11:00:09.406290,463,1582909209,406239615,vectornav,1266944427.35,0.0,0.0,0.0,-0.108136169612,0.279191792011,-9.80294132233,0.00058690586593,0.000772887375206,-1.73961743712e-05,0.0,0.0
2020/02/28/11:00:09.426397,464,1582909209,426335145,vectornav,1266944427.37,0.0,0.0,0.0,-0.0965163856745,0.275771260262,-9.74740219116,0.0011999332346,-1.76343601197e-05,5.9031881392e-05,0.0,0.0
2020/02/28/11:00:09.446297,465,1582909209,446251847,vectornav,1266944427.39,0.0,0.0,0.0,-0.0871385112405,0.31113576889,-9.75648403168,0.000382099009585,-0.00108274584636,0.00109252054244,0.0,0.0
2020/02/28/11:00:09.466309,466,1582909209,466230684,vectornav,1266944427.41,0.0,0.0,0.0,-0.0932550355792,0.265208780766,-9.75697040558,0.000906158355065,0.000206677243114,-7.38305971026e-05,0.0,0.0
2020/02/28/11:00:09.486347,467,1582909209,486301557,vectornav,1266944427.43,0.0,0.0,0.0,-0.0930512323976,0.272202312946,-9.74446868896,-0.000922334729694,-0.000173688866198,-0.000243249349296,0.0,0.0
2020/02/28/11:00:09.506312,468,1582909209,506249197,vectornav,1266944427.45,0.0,0.0,0.0,-0.0933455601335,0.245617836714,-9.79528903961,0.000342646206263,0.000714429887012,0.000553455203772,0.0,0.0
2020/02/28/11:00:09.526388,469,1582909209,526320333,vectornav,1266944427.47,0.0,0.0,0.0,-0.113375984132,0.242351636291,-9.77738666534,0.00301094981842,0.000571020180359,-0.000267864204943,0.0,0.0
2020/02/28/11:00:09.546316,470,1582909209,546238488,vectornav,1266944427.49,0.0,0.0,0.0,-0.113834612072,0.246620997787,-9.76534938812,0.00217654788867,0.000819990411401,0.000930246897042,0.0,0.0
2020/02/28/11:00:09.566337,471,1582909209,566256173,vectornav,1266944427.51,0.0,0.0,0.0,-0.109255887568,0.228436112404,-9.78487873077,-0.000207210512599,0.000188597477973,0.00112236198038,0.0,0.0
2020/02/28/11:00:09.586329,472,1582909209,586288484,vectornav,1266944427.53,0.0,0.0,0.0,-0.118567287922,0.230137616396,-9.8214597702,-0.00120234745555,-0.0002055906225,-0.000483942218125,0.0,0.0
2020/02/28/11:00:09.606310,473,1582909209,606273709,vectornav,1266944427.55,0.0,0.0,0.0,-0.129593595862,0.220260068774,-9.76995944977,0.000146822130773,0.000329328933731,0.000196414068341,0.0,0.0
2020/02/28/11:00:09.626315,474,1582909209,626257956,vectornav,1266944427.57,0.0,0.0,0.0,-0.106265097857,0.236614972353,-9.79670143127,-0.00294346595183,-0.00120536447503,-0.00120628345758,0.0,0.0
2020/02/28/11:00:09.646288,475,1582909209,646203670,vectornav,1266944427.59,0.0,0.0,0.0,-0.113303482533,0.239159047604,-9.80905246735,-0.003159141168,-0.00051955319941,-0.00202767830342,0.0,0.0
2020/02/28/11:00:09.666280,476,1582909209,666225344,vectornav,1266944427.61,0.0,0.0,0.0,-0.140318632126,0.257529914379,-9.79162883759,-0.000959336990491,4.0790066123e-05,-0.000328595750034,0.0,0.0
2020/02/28/11:00:09.686256,477,1582909209,686210232,vectornav,1266944427.63,0.0,0.0,0.0,-0.103128388524,0.239426791668,-9.75410556793,-0.00296022091061,0.000173804117367,-0.000913883559406,0.0,0.0
2020/02/28/11:00:09.706245,478,1582909209,706206240,vectornav,1266944427.65,0.0,0.0,0.0,-0.103674173355,0.26699963212,-9.77244091034,-0.00341974245384,0.000284542329609,5.2192248404e-05,0.0,0.0
2020/02/28/11:00:09.726239,479,1582909209,726161327,vectornav,1266944427.67,0.0,0.0,0.0,-0.0850126892328,0.250981748104,-9.76464748383,-0.00207995204255,-2.20679212362e-05,0.000695344991982,0.0,0.0
2020/02/28/11:00:09.746226,480,1582909209,746179739,vectornav,1266944427.69,0.0,0.0,0.0,-0.0871240496635,0.276022821665,-9.7670879364,-0.00333063746803,-0.00142032466829,0.00104415789247,0.0,0.0
2020/02/28/11:00:09.766251,481,1582909209,766215638,vectornav,1266944427.71,0.0,0.0,0.0,-0.0606776885688,0.285592347383,-9.78630924225,-0.00180656486191,-9.1856578365e-05,0.000885613262653,0.0,0.0
2020/02/28/11:00:09.786269,482,1582909209,786203294,vectornav,1266944427.73,0.0,0.0,0.0,-0.0696634799242,0.256591141224,-9.76884174347,-0.00245727947913,0.000929708126932,0.00180235784501,0.0,0.0
2020/02/28/11:00:09.806229,483,1582909209,806189625,vectornav,1266944427.75,0.0,0.0,0.0,-0.0931054651737,0.252680629492,-9.79760837555,-0.00233939778991,0.000205436488613,-2.95508652925e-05,0.0,0.0
2020/02/28/11:00:09.826299,484,1582909209,826246615,vectornav,1266944427.77,0.0,0.0,0.0,-0.0952770709991,0.287019014359,-9.79637527466,-0.00184572162107,-0.000115997390822,0.000459464266896,0.0,0.0
2020/02/28/11:00:09.846212,485,1582909209,846169680,vectornav,1266944427.79,0.0,0.0,0.0,-0.0982728600502,0.283769190311,-9.74987888336,-0.00169337587431,-0.000250445213169,0.00100505258888,0.0,0.0
2020/02/28/11:00:09.866183,486,1582909209,866142736,vectornav,1266944427.81,0.0,0.0,0.0,-0.0868691653013,0.300568521023,-9.77320766449,-0.00111212860793,-0.000275007914752,-0.000583740882576,0.0,0.0
2020/02/28/11:00:09.886294,487,1582909209,886212453,vectornav,1266944427.83,0.0,0.0,0.0,-0.103821888566,0.301228940487,-9.77541160583,2.28004064411e-05,-0.00016808649525,0.00107720773667,0.0,0.0
2020/02/28/11:00:09.906229,488,1582909209,906193309,vectornav,1266944427.85,0.0,0.0,0.0,-0.0936370044947,0.298259079456,-9.7586479187,0.00174028426409,0.00011929217726,-0.000701599754393,0.0,0.0
2020/02/28/11:00:09.926209,489,1582909209,926114256,vectornav,1266944427.87,0.0,0.0,0.0,-0.0968584865332,0.283106505871,-9.78691387177,-0.000387025123928,-0.000662478618324,-0.00126608554274,0.0,0.0
2020/02/28/11:00:09.947232,490,1582909209,947152627,vectornav,1266944427.89,0.0,0.0,0.0,-0.0924573391676,0.285634934902,-9.77343273163,0.00182926817797,0.000211094273254,-0.00094829685986,0.0,0.0
2020/02/28/11:00:09.966160,491,1582909209,966131597,vectornav,1266944427.91,0.0,0.0,0.0,-0.089397802949,0.273847818375,-9.76887226105,0.00217513251118,-0.000201252987608,0.000379960052669,0.0,0.0
2020/02/28/11:00:09.986238,492,1582909209,986194997,vectornav,1266944427.93,0.0,0.0,0.0,-0.0954856276512,0.272676467896,-9.78522872925,0.00189205282368,-0.00035450537689,7.62287527323e-05,0.0,0.0
2020/02/28/11:00:10.006256,493,1582909210,6188604,vectornav,1266944427.95,0.0,0.0,0.0,-0.119318321347,0.285364031792,-9.76974964142,0.0029947985895,-0.000213223742321,-0.000138795934618,0.0,0.0
2020/02/28/11:00:10.026313,494,1582909210,26229515,vectornav,1266944427.97,0.0,0.0,0.0,-0.0978269279003,0.276532948017,-9.77890777588,0.00353772076778,0.000584518304095,0.000320945866406,0.0,0.0
2020/02/28/11:00:10.046329,495,1582909210,46211501,vectornav,1266944427.99,0.0,0.0,0.0,-0.0975657999516,0.2539896667,-9.79323673248,0.00238515809178,-5.09575475007e-05,-8.68188217282e-05,0.0,0.0
2020/02/28/11:00:10.066171,496,1582909210,66082025,vectornav,1266944428.01,0.0,0.0,0.0,-0.113422855735,0.237384200096,-9.80822849274,0.00304344901815,-5.23698981851e-05,0.000775132328272,0.0,0.0
2020/02/28/11:00:10.087243,497,1582909210,87177141,vectornav,1266944428.03,0.0,0.0,0.0,-0.136898770928,0.210292831063,-9.78328418732,0.00232291850261,0.000365221640095,0.00047140289098,0.0,0.0
2020/02/28/11:00:10.106201,498,1582909210,106127343,vectornav,1266944428.05,0.0,0.0,0.0,-0.114961907268,0.229142710567,-9.79232883453,0.00192786217667,-0.000303556676954,-0.00180907454342,0.0,0.0
2020/02/28/11:00:10.127208,499,1582909210,127157913,vectornav,1266944428.07,0.0,0.0,0.0,-0.134603619576,0.239384129643,-9.77102375031,0.00190118420869,-0.00112347654067,-0.000164645723999,0.0,0.0
2020/02/28/11:00:10.147152,500,1582909210,147090764,vectornav,1266944428.09,0.0,0.0,0.0,-0.129347428679,0.247736439109,-9.75071811676,0.00169299775735,-7.54052307457e-05,-0.000294051133096,0.0,0.0
2020/02/28/11:00:10.167121,501,1582909210,167087380,vectornav,1266944428.11,0.0,0.0,0.0,-0.122970715165,0.242716878653,-9.73536396027,-0.00108619872481,-0.000426148762926,0.000940074212849,0.0,0.0
2020/02/28/11:00:10.187237,502,1582909210,187165382,vectornav,1266944428.13,0.0,0.0,0.0,-0.114703081548,0.271735608578,-9.79829692841,0.000576530059334,0.000235770829022,0.000248764641583,0.0,0.0
2020/02/28/11:00:10.207129,503,1582909210,207065430,vectornav,1266944428.15,0.0,0.0,0.0,-0.103569053113,0.254068702459,-9.7373418808,-0.000210985424928,-0.00105830654502,0.000190709717572,0.0,0.0
2020/02/28/11:00:10.227191,504,1582909210,227154735,vectornav,1266944428.17,0.0,0.0,0.0,-0.103527374566,0.238974928856,-9.78124904633,-0.00279415212572,-6.3230516389e-05,0.000441021285951,0.0,0.0
2020/02/28/11:00:10.247108,505,1582909210,247061306,vectornav,1266944428.19,0.0,0.0,0.0,-0.0871052965522,0.268360823393,-9.78060054779,-0.00151975406334,-0.000517381355166,-0.00105694402009,0.0,0.0
2020/02/28/11:00:10.267132,506,1582909210,267064085,vectornav,1266944428.21,0.0,0.0,0.0,-0.0941843912005,0.256791621447,-9.76923656464,0.000475310895126,-0.00123716611415,0.000375297851861,0.0,0.0
2020/02/28/11:00:10.287111,507,1582909210,287057576,vectornav,1266944428.23,0.0,0.0,0.0,-0.119360007346,0.273270279169,-9.80435371399,-0.00216049351729,-0.000348930014297,-0.000111168250442,0.0,0.0
2020/02/28/11:00:10.307092,508,1582909210,307053341,vectornav,1266944428.25,0.0,0.0,0.0,-0.0910093709826,0.288813620806,-9.8129529953,0.000663636543322,-0.00038565392606,0.00077748671174,0.0,0.0
2020/02/28/11:00:10.327068,509,1582909210,327017271,vectornav,1266944428.27,0.0,0.0,0.0,-0.0819212347269,0.285976320505,-9.77029514313,1.22722703964e-05,-0.00108833541162,-0.000672983936965,0.0,0.0
2020/02/28/11:00:10.347120,510,1582909210,347073829,vectornav,1266944428.29,0.0,0.0,0.0,-0.0776804760098,0.277578860521,-9.7820558548,-0.00183703552466,-6.58198259771e-05,-0.00069588702172,0.0,0.0
2020/02/28/11:00:10.367163,511,1582909210,367130863,vectornav,1266944428.31,0.0,0.0,0.0,-0.0775677785277,0.277669638395,-9.78864383698,-0.00165076623671,0.000143472803757,-0.00063759367913,0.0,0.0
2020/02/28/11:00:10.387130,512,1582909210,387082947,vectornav,1266944428.33,0.0,0.0,0.0,-0.0980812683702,0.264754474163,-9.75226974487,0.000353274925146,-0.000958950491622,-0.000808128155768,0.0,0.0
2020/02/28/11:00:10.407107,513,1582909210,407065083,vectornav,1266944428.35,0.0,0.0,0.0,-0.0932940542698,0.27570348978,-9.77787399292,-0.00107150617987,0.000143934739754,-0.00015342887491,0.0,0.0
2020/02/28/11:00:10.427122,514,1582909210,427078460,vectornav,1266944428.37,0.0,0.0,0.0,-0.0853909477592,0.247336164117,-9.78856277466,-0.00112847681157,-0.000309692928568,6.74454495311e-05,0.0,0.0
2020/02/28/11:00:10.447029,515,1582909210,446986266,vectornav,1266944428.39,0.0,0.0,0.0,-0.088335454464,0.281683743,-9.76827430725,0.00231691449881,-0.00020038173534,3.90857458115e-05,0.0,0.0
2020/02/28/11:00:10.467048,516,1582909210,466982713,vectornav,1266944428.41,0.0,0.0,0.0,-0.102388314903,0.290331363678,-9.76272583008,-0.000214009603951,0.000178179936484,-5.18327578902e-05,0.0,0.0
2020/02/28/11:00:10.487029,517,1582909210,486984768,vectornav,1266944428.43,0.0,0.0,0.0,-0.0976542308927,0.269194155931,-9.80222511292,0.000351691502146,0.000706914812326,-0.00125931482762,0.0,0.0
2020/02/28/11:00:10.507001,518,1582909210,506956022,vectornav,1266944428.45,0.0,0.0,0.0,-0.107016406953,0.269854098558,-9.78582000732,0.000458239635918,-0.000512566184625,0.000197415240109,0.0,0.0
2020/02/28/11:00:10.527036,519,1582909210,526967738,vectornav,1266944428.47,0.0,0.0,0.0,-0.12075022608,0.242517501116,-9.79691123962,0.000456715119071,-0.000158142531291,6.64973631501e-05,0.0,0.0
2020/02/28/11:00:10.547102,520,1582909210,547062675,vectornav,1266944428.49,0.0,0.0,0.0,-0.120225407183,0.235371112823,-9.73913192749,0.0013812474208,-0.000748532824218,0.00125175341964,0.0,0.0
2020/02/28/11:00:10.567004,521,1582909210,566965606,vectornav,1266944428.51,0.0,0.0,0.0,-0.0816134735942,0.274790108204,-9.7479724884,-0.00107571738772,-0.000872286036611,0.000488822348416,0.0,0.0
2020/02/28/11:00:10.587075,522,1582909210,587032998,vectornav,1266944428.53,0.0,0.0,0.0,-0.0848773270845,0.230724722147,-9.81067657471,-0.000769657257479,-0.00144018791616,0.000223309732974,0.0,0.0
2020/02/28/11:00:10.606989,523,1582909210,606951802,vectornav,1266944428.55,0.0,0.0,0.0,-0.087783433497,0.266632676125,-9.81754779816,0.00234855967574,-0.00201027840376,0.000933402217925,0.0,0.0
2020/02/28/11:00:10.627041,524,1582909210,626959771,vectornav,1266944428.57,0.0,0.0,0.0,-0.107767768204,0.254302024841,-9.7590970993,0.000377743504941,-0.000448806909844,0.00138993095607,0.0,0.0
2020/02/28/11:00:10.646954,525,1582909210,646908849,vectornav,1266944428.59,0.0,0.0,0.0,-0.0836389884353,0.248976528645,-9.820271492,-0.00217132875696,3.79518605769e-05,-0.00113638211042,0.0,0.0
2020/02/28/11:00:10.667088,526,1582909210,667028675,vectornav,1266944428.61,0.0,0.0,0.0,-0.10844822973,0.247183546424,-9.78468704224,0.000574112753384,0.00141973397695,-0.000276717357337,0.0,0.0
2020/02/28/11:00:10.687001,527,1582909210,686931829,vectornav,1266944428.63,0.0,0.0,0.0,-0.11674503237,0.240855485201,-9.73986816406,0.000525560521055,0.000155297806486,-0.00156345032156,0.0,0.0
2020/02/28/11:00:10.706958,528,1582909210,706936429,vectornav,1266944428.65,0.0,0.0,0.0,-0.0935620591044,0.243423998356,-9.72113704681,-0.0010510426946,-0.00114785577171,-0.00100396201015,0.0,0.0
2020/02/28/11:00:10.727007,529,1582909210,726913858,vectornav,1266944428.67,0.0,0.0,0.0,-0.112061463296,0.289425760508,-9.78443527222,-0.00198999047279,-0.00106951897033,-0.00124242529273,0.0,0.0
2020/02/28/11:00:10.746965,530,1582909210,746887999,vectornav,1266944428.69,0.0,0.0,0.0,-0.11280516535,0.262220740318,-9.75208377838,-0.000602864951361,-0.000132823130116,-0.000280911102891,0.0,0.0
2020/02/28/11:00:10.766934,531,1582909210,766894631,vectornav,1266944428.71,0.0,0.0,0.0,-0.121650703251,0.283822089434,-9.77438926697,-0.000482428207761,6.39860518277e-05,0.000439023599029,0.0,0.0
2020/02/28/11:00:10.786953,532,1582909210,786879052,vectornav,1266944428.73,0.0,0.0,0.0,-0.0978107154369,0.272180855274,-9.80000972748,0.000815558829345,-0.000202184077352,-0.000588635914028,0.0,0.0
2020/02/28/11:00:10.807040,533,1582909210,806985006,vectornav,1266944428.75,0.0,0.0,0.0,-0.119807869196,0.270937681198,-9.76345539093,0.000314801873174,-0.000340739963576,0.00031700078398,0.0,0.0
2020/02/28/11:00:10.826919,534,1582909210,826860831,vectornav,1266944428.77,0.0,0.0,0.0,-0.112026691437,0.294400364161,-9.79708576202,0.000299498729873,-0.000396179966629,0.00111521035433,0.0,0.0
2020/02/28/11:00:10.847005,535,1582909210,846956631,vectornav,1266944428.79,0.0,0.0,0.0,-0.098708987236,0.240319788456,-9.80008029938,0.00150667247362,-0.00080256909132,0.00014137942344,0.0,0.0
2020/02/28/11:00:10.866980,536,1582909210,866935328,vectornav,1266944428.81,0.0,0.0,0.0,-0.0926929265261,0.26631975174,-9.76299571991,-0.000887700647581,-0.000613328302279,0.000494523905218,0.0,0.0
2020/02/28/11:00:10.886976,537,1582909210,886882220,vectornav,1266944428.83,0.0,0.0,0.0,-0.0909117981791,0.245611965656,-9.80691814423,-0.00122250942513,0.000167567050084,-0.000339980237186,0.0,0.0
2020/02/28/11:00:10.906910,538,1582909210,906844114,vectornav,1266944428.85,0.0,0.0,0.0,-0.0970110744238,0.262726664543,-9.81457805634,0.00206138170324,-1.03788916022e-05,0.00118603929877,0.0,0.0
2020/02/28/11:00:10.926932,539,1582909210,926859408,vectornav,1266944428.87,0.0,0.0,0.0,-0.111405849457,0.230578064919,-9.74781513214,0.000810785335489,0.000736854737625,0.000595550984144,0.0,0.0
2020/02/28/11:00:10.946942,540,1582909210,946866265,vectornav,1266944428.89,0.0,0.0,0.0,-0.0920494943857,0.248756229877,-9.79663276672,-0.00212477939203,-0.00134161883034,0.000364404171705,0.0,0.0
2020/02/28/11:00:10.966929,541,1582909210,966885753,vectornav,1266944428.91,0.0,0.0,0.0,-0.101985417306,0.227962166071,-9.78143501282,0.000607778842095,-0.000829334836453,5.48623502254e-05,0.0,0.0
2020/02/28/11:00:10.986998,542,1582909210,986928299,vectornav,1266944428.93,0.0,0.0,0.0,-0.106899157166,0.252764552832,-9.7786655426,0.000865777721629,0.00144022726454,0.00126105360687,0.0,0.0
2020/02/28/11:00:11.006842,543,1582909211,6809914,vectornav,1266944428.95,0.0,0.0,0.0,-0.112261742353,0.25671300292,-9.79221534729,-0.00170427490957,0.000662121456116,-0.000466542318463,0.0,0.0
2020/02/28/11:00:11.026852,544,1582909211,26816936,vectornav,1266944428.97,0.0,0.0,0.0,-0.109569728374,0.269211858511,-9.7633895874,7.06584542058e-05,0.000807244330645,-0.000953435897827,0.0,0.0
2020/02/28/11:00:11.046951,545,1582909211,46901016,vectornav,1266944428.99,0.0,0.0,0.0,-0.109283149242,0.244875580072,-9.78171539307,-0.000563259993214,6.93488400429e-05,0.00119266472757,0.0,0.0
2020/02/28/11:00:11.066904,546,1582909211,66848084,vectornav,1266944429.01,0.0,0.0,0.0,-0.108908578753,0.265254944563,-9.7980594635,-0.000947804772295,0.0015706459526,0.00072056800127,0.0,0.0
2020/02/28/11:00:11.086858,547,1582909211,86824886,vectornav,1266944429.03,0.0,0.0,0.0,-0.12872967124,0.266207426786,-9.81912994385,0.000275096273981,-0.000492457067594,0.00042006932199,0.0,0.0
2020/02/28/11:00:11.106901,548,1582909211,106860696,vectornav,1266944429.05,0.0,0.0,0.0,-0.0982833877206,0.253052085638,-9.79912757874,0.000189033045899,-0.000888160197064,-0.000435721129179,0.0,0.0
2020/02/28/11:00:11.126920,549,1582909211,126853814,vectornav,1266944429.07,0.0,0.0,0.0,-0.0773715227842,0.273526281118,-9.78541183472,-0.000847756571602,-0.00213035172783,0.00079526938498,0.0,0.0
2020/02/28/11:00:11.146879,550,1582909211,146806367,vectornav,1266944429.09,0.0,0.0,0.0,-0.0881880223751,0.238574117422,-9.78977394104,9.22928447835e-05,0.000399885699153,0.000260638073087,0.0,0.0
2020/02/28/11:00:11.166806,551,1582909211,166765709,vectornav,1266944429.11,0.0,0.0,0.0,-0.111909881234,0.269560068846,-9.74189376831,0.000906018598471,0.000259545864537,0.000541167333722,0.0,0.0
2020/02/28/11:00:11.186894,552,1582909211,186834996,vectornav,1266944429.13,0.0,0.0,0.0,-0.0860230773687,0.2922976017,-9.75807380676,-0.00102787127253,-0.00105356192216,-0.000497845001519,0.0,0.0
2020/02/28/11:00:11.206807,553,1582909211,206731102,vectornav,1266944429.15,0.0,0.0,0.0,-0.105845332146,0.27913582325,-9.76676750183,0.000460541457869,2.33808532357e-06,0.000902364961803,0.0,0.0
2020/02/28/11:00:11.226829,554,1582909211,226758548,vectornav,1266944429.17,0.0,0.0,0.0,-0.0984424799681,0.285876125097,-9.73505210876,0.00117817241699,-0.00187254138291,0.000293839722872,0.0,0.0
2020/02/28/11:00:11.246771,555,1582909211,246738993,vectornav,1266944429.19,0.0,0.0,0.0,-0.0882948935032,0.273792147636,-9.77427482605,-7.63045973144e-05,-0.0013574406039,-0.000259956344962,0.0,0.0
2020/02/28/11:00:11.266817,556,1582909211,266739867,vectornav,1266944429.21,0.0,0.0,0.0,-0.0973903685808,0.272884756327,-9.78602027893,5.40165347047e-05,8.1080943346e-05,-0.000502087175846,0.0,0.0
2020/02/28/11:00:11.286839,557,1582909211,286779363,vectornav,1266944429.23,0.0,0.0,0.0,-0.0841531902552,0.266170799732,-9.78421878815,0.00105599802919,2.7920352295e-05,0.000215759500861,0.0,0.0
2020/02/28/11:00:11.306775,558,1582909211,306739976,vectornav,1266944429.25,0.0,0.0,0.0,-0.0904118269682,0.257856488228,-9.82365989685,-0.000595864024945,0.000120525946841,-0.000817066058517,0.0,0.0
2020/02/28/11:00:11.326870,559,1582909211,326797183,vectornav,1266944429.27,0.0,0.0,0.0,-0.0971340090036,0.268539369106,-9.80237388611,0.000818388303742,0.00101895001717,-0.000505068339407,0.0,0.0
2020/02/28/11:00:11.346833,560,1582909211,346775311,vectornav,1266944429.29,0.0,0.0,0.0,-0.0955174565315,0.256211787462,-9.78860855103,0.000457818969153,-0.000103485770524,-0.000798366032541,0.0,0.0
2020/02/28/11:00:11.366845,561,1582909211,366756486,vectornav,1266944429.31,0.0,0.0,0.0,-0.0921851471066,0.269426047802,-9.78888034821,0.000968915119302,0.00150528131053,0.000337067991495,0.0,0.0
2020/02/28/11:00:11.386780,562,1582909211,386727995,vectornav,1266944429.33,0.0,0.0,0.0,-0.101630710065,0.265956521034,-9.73483467102,0.000523025286384,0.000551488017663,-0.00044889561832,0.0,0.0
2020/02/28/11:00:11.406851,563,1582909211,406813576,vectornav,1266944429.35,0.0,0.0,0.0,-0.12896323204,0.26945194602,-9.72042179108,-0.000232254358707,-0.00192869105376,0.000233514234424,0.0,0.0
2020/02/28/11:00:11.426721,564,1582909211,426679714,vectornav,1266944429.37,0.0,0.0,0.0,-0.102899812162,0.265180855989,-9.7539730072,-0.00109548377804,0.000627171946689,0.000597970560193,0.0,0.0
2020/02/28/11:00:11.446743,565,1582909211,446693359,vectornav,1266944429.39,0.0,0.0,0.0,-0.126868009567,0.246680617332,-9.75893783569,0.000502240669448,0.00065630255267,-0.000341406092048,0.0,0.0
2020/02/28/11:00:11.466704,566,1582909211,466659845,vectornav,1266944429.41,0.0,0.0,0.0,-0.0805394425988,0.22979670763,-9.72659873962,-0.000234724546317,-0.000929954461753,0.000943455845118,0.0,0.0
2020/02/28/11:00:11.486704,567,1582909211,486670538,vectornav,1266944429.43,0.0,0.0,0.0,-0.0793114081025,0.25818708539,-9.80797290802,-0.00230899779126,-5.12038823217e-05,0.000261789187789,0.0,0.0
2020/02/28/11:00:11.506792,568,1582909211,506733506,vectornav,1266944429.45,0.0,0.0,0.0,-0.0771582499146,0.229355543852,-9.83284187317,0.00165199523326,0.000720628770068,0.000687424093485,0.0,0.0
2020/02/28/11:00:11.526702,569,1582909211,526653964,vectornav,1266944429.47,0.0,0.0,0.0,-0.0995778590441,0.262713819742,-9.7949180603,0.00208879215643,0.000200585694984,-0.000406789593399,0.0,0.0
2020/02/28/11:00:11.546713,570,1582909211,546668725,vectornav,1266944429.49,0.0,0.0,0.0,-0.0585282221437,0.265318512917,-9.78939914703,-0.000205831340281,-0.000998847885057,-0.000807655975223,0.0,0.0
2020/02/28/11:00:11.566660,571,1582909211,566615092,vectornav,1266944429.51,0.0,0.0,0.0,-0.0873995497823,0.247885495424,-9.81005096436,-0.000105974555481,-0.000436956761405,-0.00113384984434,0.0,0.0
2020/02/28/11:00:11.586677,572,1582909211,586630766,vectornav,1266944429.53,0.0,0.0,0.0,-0.117769159377,0.284579515457,-9.76930046082,1.82077055797e-05,0.000218283385038,0.00112652312964,0.0,0.0
2020/02/28/11:00:11.606736,573,1582909211,606671776,vectornav,1266944429.55,0.0,0.0,0.0,-0.111123777926,0.264470815659,-9.71894264221,-0.00168661924545,-0.00172638171352,-5.73946163058e-05,0.0,0.0
2020/02/28/11:00:11.626714,574,1582909211,626663214,vectornav,1266944429.57,0.0,0.0,0.0,-0.0727946013212,0.245656564832,-9.76880264282,0.00062603445258,-0.000457999529317,-0.000650861300528,0.0,0.0
2020/02/28/11:00:11.646694,575,1582909211,646654905,vectornav,1266944429.59,0.0,0.0,0.0,-0.107608862221,0.261917769909,-9.768699646,0.00118339480832,-5.73368743062e-06,0.000790243037045,0.0,0.0
2020/02/28/11:00:11.666748,576,1582909211,666665178,vectornav,1266944429.61,0.0,0.0,0.0,-0.105073258281,0.258735239506,-9.80028915405,-0.000544498558156,-0.000665242085233,-0.000285796821117,0.0,0.0
2020/02/28/11:00:11.686739,577,1582909211,686669224,vectornav,1266944429.63,0.0,0.0,0.0,-0.113723494112,0.278035700321,-9.78597831726,0.00122850388288,0.000620642444119,0.000567730516195,0.0,0.0
2020/02/28/11:00:11.706757,578,1582909211,706680283,vectornav,1266944429.65,0.0,0.0,0.0,-0.0973092764616,0.289391934872,-9.74777793884,0.0022326989565,0.000186276622117,0.000214401632547,0.0,0.0
2020/02/28/11:00:11.726716,579,1582909211,726636396,vectornav,1266944429.67,0.0,0.0,0.0,-0.104660801589,0.279396533966,-9.77396583557,-0.000420875527197,0.00141835957766,9.15387645364e-05,0.0,0.0
2020/02/28/11:00:11.746700,580,1582909211,746641371,vectornav,1266944429.69,0.0,0.0,0.0,-0.0981965139508,0.305546045303,-9.75439453125,0.00021140294848,-0.000980422832072,-0.000634549185634,0.0,0.0
2020/02/28/11:00:11.766760,581,1582909211,766693427,vectornav,1266944429.71,0.0,0.0,0.0,-0.11083791405,0.287085235119,-9.77576160431,-0.000604789936915,-0.00198878883384,7.59875401855e-05,0.0,0.0
2020/02/28/11:00:11.786703,582,1582909211,786615903,vectornav,1266944429.73,0.0,0.0,0.0,-0.0876319408417,0.272064566612,-9.78586673737,-0.000774169922806,-0.000360795296729,-0.00113590620458,0.0,0.0
2020/02/28/11:00:11.806624,583,1582909211,806594347,vectornav,1266944429.75,0.0,0.0,0.0,-0.0715465024114,0.249477699399,-9.79271793365,0.000813650549389,-0.000670572277158,-0.000290636904538,0.0,0.0
2020/02/28/11:00:11.826694,584,1582909211,826636276,vectornav,1266944429.77,0.0,0.0,0.0,-0.0644638761878,0.253124892712,-9.77731227875,0.00178816309199,-0.000761044444516,-0.000379203818738,0.0,0.0
2020/02/28/11:00:11.846645,585,1582909211,846609868,vectornav,1266944429.79,0.0,0.0,0.0,-0.0458678454161,0.264499366283,-9.78810024261,0.00124430353753,-0.000938547542319,-0.00107909459621,0.0,0.0
2020/02/28/11:00:11.866621,586,1582909211,866587967,vectornav,1266944429.81,0.0,0.0,0.0,-0.0659399628639,0.289637565613,-9.77678012848,0.000850540702231,-0.00191911286674,0.000189762562513,0.0,0.0
2020/02/28/11:00:11.886670,587,1582909211,886579560,vectornav,1266944429.83,0.0,0.0,0.0,-0.0645840987563,0.23835888505,-9.7609167099,-0.000619185331743,0.00101757142693,0.000503903254867,0.0,0.0
2020/02/28/11:00:11.906583,588,1582909211,906543775,vectornav,1266944429.85,0.0,0.0,0.0,-0.0618468821049,0.268736541271,-9.76366233826,-0.000656259479001,0.000569220399484,0.000266233459115,0.0,0.0
2020/02/28/11:00:11.926585,589,1582909211,926529067,vectornav,1266944429.87,0.0,0.0,0.0,-0.0685375183821,0.280726134777,-9.75828075409,0.00058936397545,-0.000902890227735,-0.000147458165884,0.0,0.0
2020/02/28/11:00:11.946615,590,1582909211,946533644,vectornav,1266944429.89,0.0,0.0,0.0,-0.0840449184179,0.2580268085,-9.7449836731,-0.000550061347894,-0.00189422396943,0.000924228690565,0.0,0.0
2020/02/28/11:00:11.966602,591,1582909211,966568690,vectornav,1266944429.91,0.0,0.0,0.0,-0.0865449309349,0.232134103775,-9.79235363007,-0.00293007004075,6.85397535563e-05,-0.000599801540375,0.0,0.0
2020/02/28/11:00:11.986612,592,1582909211,986564124,vectornav,1266944429.93,0.0,0.0,0.0,-0.0812149941921,0.248905137181,-9.8039484024,-0.00102158891968,-0.000249213306233,1.60103663802e-05,0.0,0.0
2020/02/28/11:00:12.006603,593,1582909212,6559011,vectornav,1266944429.95,0.0,0.0,0.0,-0.0835202485323,0.246367946267,-9.78228759766,-0.00068058364559,-0.00076954276301,-0.000354644842446,0.0,0.0
2020/02/28/11:00:12.026565,594,1582909212,26526027,vectornav,1266944429.97,0.0,0.0,0.0,-0.0904368758202,0.245543643832,-9.8101940155,-0.00212751957588,-0.00054809357971,-0.00041391607374,0.0,0.0
2020/02/28/11:00:12.046534,595,1582909212,46492388,vectornav,1266944429.99,0.0,0.0,0.0,-0.106025822461,0.244455143809,-9.77810192108,-0.000666747509968,-0.000909848837182,0.000351011753082,0.0,0.0
2020/02/28/11:00:12.066535,596,1582909212,66477428,vectornav,1266944430.01,0.0,0.0,0.0,-0.106061846018,0.238293319941,-9.73823928833,-0.00168296834454,0.000549260061234,0.000813589431345,0.0,0.0
2020/02/28/11:00:12.086644,597,1582909212,86557665,vectornav,1266944430.03,0.0,0.0,0.0,-0.117069140077,0.246793061495,-9.76088619232,-0.00402506347746,-0.00121779670008,-0.00145260524005,0.0,0.0
2020/02/28/11:00:12.106571,598,1582909212,106507381,vectornav,1266944430.05,0.0,0.0,0.0,-0.0977340489626,0.272801548243,-9.79614162445,-0.00190452672541,-4.54743858427e-05,-0.0015902929008,0.0,0.0
2020/02/28/11:00:12.126584,599,1582909212,126531782,vectornav,1266944430.07,0.0,0.0,0.0,-0.111051306129,0.239816978574,-9.74664783478,0.00052200834034,-0.0006659028586,-0.000105591490865,0.0,0.0
2020/02/28/11:00:12.146634,600,1582909212,146583311,vectornav,1266944430.09,0.0,0.0,0.0,-0.104976311326,0.204713627696,-9.85927581787,-0.00711192563176,0.000914435833693,-0.000456981360912,0.0,0.0
2020/02/28/11:00:12.166535,601,1582909212,166490428,vectornav,1266944430.11,0.0,0.0,0.0,-0.106702916324,0.318404257298,-9.82535362244,0.00213083368726,-0.000466352328658,-0.00154031533748,0.0,0.0
2020/02/28/11:00:12.186552,602,1582909212,186477327,vectornav,1266944430.13,0.0,0.0,0.0,-0.104604564607,0.271216392517,-9.75310897827,-0.000275869155303,-4.98830340803e-05,-0.000402697362006,0.0,0.0
2020/02/28/11:00:12.206507,603,1582909212,206458386,vectornav,1266944430.15,0.0,0.0,0.0,-0.0802142471075,0.290535390377,-9.84204483032,-0.00536630814895,0.00171360326931,-0.000717873685062,0.0,0.0
2020/02/28/11:00:12.226584,604,1582909212,226540531,vectornav,1266944430.17,0.0,0.0,0.0,-0.108852699399,0.282170772552,-9.81312084198,0.00431491201743,-0.000403503654525,0.000523774884641,0.0,0.0
2020/02/28/11:00:12.246491,605,1582909212,246448462,vectornav,1266944430.19,0.0,0.0,0.0,-0.0848229080439,0.299482405186,-9.69720554352,0.0016025218647,-0.000942118698731,-0.000342662446201,0.0,0.0
2020/02/28/11:00:12.266480,606,1582909212,266440836,vectornav,1266944430.21,0.0,0.0,0.0,-0.0951226651669,0.31165599823,-9.72028446198,-0.00432005338371,-0.00130417500623,0.0014555612579,0.0,0.0
2020/02/28/11:00:12.286464,607,1582909212,286419316,vectornav,1266944430.23,0.0,0.0,0.0,-0.0751735568047,0.280473768711,-9.78498744965,0.000942847458646,0.000287399394438,0.000306298956275,0.0,0.0
2020/02/28/11:00:12.306469,608,1582909212,306429279,vectornav,1266944430.25,0.0,0.0,0.0,-0.0927501320839,0.276297360659,-9.75413227081,0.00184457597788,-0.000795968109742,0.00135852675885,0.0,0.0
2020/02/28/11:00:12.326469,609,1582909212,326421119,vectornav,1266944430.27,0.0,0.0,0.0,-0.0429901592433,0.237093448639,-9.75117588043,-0.00179709913209,0.00118170725182,-7.74012878537e-05,0.0,0.0
2020/02/28/11:00:12.346493,610,1582909212,346424402,vectornav,1266944430.29,0.0,0.0,0.0,-0.0941467583179,0.261427402496,-9.83945560455,-0.000477168447105,0.00147894443944,-0.000173276290298,0.0,0.0
2020/02/28/11:00:12.366550,611,1582909212,366494269,vectornav,1266944430.31,0.0,0.0,0.0,-0.062261659652,0.256562173367,-9.76215171814,0.00356779689901,-0.000692089088261,-0.00128594506532,0.0,0.0
2020/02/28/11:00:12.386529,612,1582909212,386432827,vectornav,1266944430.33,0.0,0.0,0.0,-0.0854064375162,0.253426343203,-9.72816085815,-0.000461173214717,0.00183156342246,-0.00113704800606,0.0,0.0
2020/02/28/11:00:12.406548,613,1582909212,406500457,vectornav,1266944430.35,0.0,0.0,0.0,-0.0926361531019,0.292494416237,-9.7937374115,-0.00160643761046,-0.000645722262561,5.77634200454e-05,0.0,0.0
2020/02/28/11:00:12.426494,614,1582909212,426396191,vectornav,1266944430.37,0.0,0.0,0.0,-0.12469895184,0.274777024984,-9.80399703979,0.00247717974707,0.000782269053161,-0.000455791130662,0.0,0.0
2020/02/28/11:00:12.446503,615,1582909212,446457252,vectornav,1266944430.39,0.0,0.0,0.0,-0.092324718833,0.2950078547,-9.77683639526,0.00022378610447,0.000857584178448,6.1122700572e-06,0.0,0.0
2020/02/28/11:00:12.466562,616,1582909212,466529217,vectornav,1266944430.41,0.0,0.0,0.0,-0.0830642133951,0.289083003998,-9.83883285522,0.00120675063226,-0.000391762005165,-0.000596427358687,0.0,0.0
2020/02/28/11:00:12.486493,617,1582909212,486393615,vectornav,1266944430.43,0.0,0.0,0.0,-0.0973471477628,0.275888890028,-9.80708885193,-5.56130544282e-05,-0.00016551092267,0.000220482237637,0.0,0.0
2020/02/28/11:00:12.506422,618,1582909212,506378105,vectornav,1266944430.45,0.0,0.0,0.0,-0.0859803110361,0.258878856897,-9.76447296143,0.00130042864475,-0.00157430581748,0.00225996691734,0.0,0.0
2020/02/28/11:00:12.527455,619,1582909212,527382093,vectornav,1266944430.47,0.0,0.0,0.0,-0.0775540620089,0.264074981213,-9.77167320251,-0.000360683712643,-0.0003528338857,0.00169133674353,0.0,0.0
2020/02/28/11:00:12.546508,620,1582909212,546439450,vectornav,1266944430.49,0.0,0.0,0.0,-0.092741176486,0.242849811912,-9.71874237061,0.00155867263675,-0.00188177032396,0.00153381098062,0.0,0.0
2020/02/28/11:00:12.566417,621,1582909212,566378397,vectornav,1266944430.51,0.0,0.0,0.0,-0.073306530714,0.264848142862,-9.65518188477,-0.00156015460379,0.000954353250563,0.000826281495392,0.0,0.0
2020/02/28/11:00:12.586490,622,1582909212,586439207,vectornav,1266944430.53,0.0,0.0,0.0,-0.077915109694,0.238383039832,-9.76544761658,0.000517963373568,0.000992749119177,0.000497221015394,0.0,0.0
2020/02/28/11:00:12.606447,623,1582909212,606387110,vectornav,1266944430.55,0.0,0.0,0.0,-0.06440205127,0.236398860812,-9.77266120911,0.000506401702296,-0.00202516256832,-0.000371913425624,0.0,0.0
2020/02/28/11:00:12.626493,624,1582909212,626394852,vectornav,1266944430.57,0.0,0.0,0.0,-0.0735295936465,0.256861388683,-9.80536460876,0.00118867121637,-9.53481066972e-05,7.55675137043e-05,0.0,0.0
2020/02/28/11:00:12.646444,625,1582909212,646366403,vectornav,1266944430.59,0.0,0.0,0.0,-0.0790325030684,0.24170564115,-9.83237075806,-0.00361282518134,-0.00107166077942,-0.000404740683734,0.0,0.0
2020/02/28/11:00:12.667344,626,1582909212,667302098,vectornav,1266944430.61,0.0,0.0,0.0,-0.0986115112901,0.29636272788,-9.80986785889,2.19575013034e-05,-0.00140260043554,-0.00041470117867,0.0,0.0
2020/02/28/11:00:12.686573,627,1582909212,686475045,vectornav,1266944430.63,0.0,0.0,0.0,-0.0963688120246,0.305940568447,-9.83496379852,0.00262204511091,0.000755851855502,7.91130587459e-05,0.0,0.0
2020/02/28/11:00:12.706401,628,1582909212,706351661,vectornav,1266944430.65,0.0,0.0,0.0,-0.0663948580623,0.338981688023,-9.76972007751,0.000321839994285,0.000746326288208,6.78654760122e-06,0.0,0.0
2020/02/28/11:00:12.727435,629,1582909212,727326592,vectornav,1266944430.67,0.0,0.0,0.0,-0.0905895605683,0.277390897274,-9.789270401,-0.000935973250307,-0.00159450923093,0.000548363663256,0.0,0.0
2020/02/28/11:00:12.746365,630,1582909212,746327886,vectornav,1266944430.69,0.0,0.0,0.0,-0.0844243690372,0.332816213369,-9.77758216858,0.00252398476005,-0.00106188748032,0.000784349627793,0.0,0.0
2020/02/28/11:00:12.766339,631,1582909212,766289360,vectornav,1266944430.71,0.0,0.0,0.0,-0.0717469528317,0.290926575661,-9.72386360168,0.00473038293421,0.000434953486547,0.000389614142478,0.0,0.0
2020/02/28/11:00:12.787415,632,1582909212,787366598,vectornav,1266944430.73,0.0,0.0,0.0,-0.0603664517403,0.287103533745,-9.77738380432,0.00103406747803,-0.000336976489052,-1.63922086358e-05,0.0,0.0
2020/02/28/11:00:12.807363,633,1582909212,807301074,vectornav,1266944430.75,0.0,0.0,0.0,-0.0746337920427,0.229051917791,-9.75355911255,0.00413452647626,-0.000249565346166,0.000583822838962,0.0,0.0
2020/02/28/11:00:12.827339,634,1582909212,827285168,vectornav,1266944430.77,0.0,0.0,0.0,-0.0799275636673,0.238159745932,-9.79705810547,0.00318636838347,0.000112764071673,0.00108053255826,0.0,0.0
2020/02/28/11:00:12.847335,635,1582909212,847281809,vectornav,1266944430.79,0.0,0.0,0.0,-0.0905236452818,0.2135668993,-9.73668670654,0.00231793220155,0.000944312196225,-4.35719266534e-05,0.0,0.0
2020/02/28/11:00:12.867358,636,1582909212,867296420,vectornav,1266944430.81,0.0,0.0,0.0,-0.0928670838475,0.242086797953,-9.82522010803,0.00185418513138,0.00170969672035,-0.00140454713255,0.0,0.0
2020/02/28/11:00:12.887349,637,1582909212,887296539,vectornav,1266944430.83,0.0,0.0,0.0,-0.10156147927,0.257249087095,-9.74732780457,0.000650271656923,0.00221335748211,-0.000417239032686,0.0,0.0
2020/02/28/11:00:12.907393,638,1582909212,907328420,vectornav,1266944430.85,0.0,0.0,0.0,-0.136485382915,0.228134661913,-9.7662525177,-0.00020882365061,0.00112196640112,-0.00224961619824,0.0,0.0
2020/02/28/11:00:12.927405,639,1582909212,927354122,vectornav,1266944430.87,0.0,0.0,0.0,-0.134582102299,0.265098273754,-9.74840545654,-0.00205983151682,0.00097793713212,-0.0022833449766,0.0,0.0
2020/02/28/11:00:12.947372,640,1582909212,947233391,vectornav,1266944430.89,0.0,0.0,0.0,-0.141086876392,0.273874759674,-9.77429485321,-0.0015788358869,0.00163934472948,-0.00243572611362,0.0,0.0
2020/02/28/11:00:12.967282,641,1582909212,967240136,vectornav,1266944430.91,0.0,0.0,0.0,-0.144809737802,0.269455105066,-9.76212501526,-0.00103276665322,0.0010703294538,-0.000140619464219,0.0,0.0
2020/02/28/11:00:12.987341,642,1582909212,987266085,vectornav,1266944430.93,0.0,0.0,0.0,-0.144684389234,0.281183928251,-9.81642723083,0.000871486146934,0.000503142364323,-0.00098199211061,0.0,0.0
2020/02/28/11:00:13.007224,643,1582909213,7188984,vectornav,1266944430.95,0.0,0.0,0.0,-0.144548073411,0.307526230812,-9.77109909058,0.00309952022508,0.000315825687721,-0.000288560055196,0.0,0.0
2020/02/28/11:00:13.027232,644,1582909213,27192964,vectornav,1266944430.97,0.0,0.0,0.0,-0.135490879416,0.305501520634,-9.77311897278,0.00279335351661,-7.41798430681e-06,0.00210670847446,0.0,0.0
2020/02/28/11:00:13.047315,645,1582909213,47255438,vectornav,1266944430.99,0.0,0.0,0.0,-0.149191364646,0.315014839172,-9.81805419922,0.0025561847724,-0.000188028439879,0.000790688209236,0.0,0.0
2020/02/28/11:00:13.067231,646,1582909213,67202043,vectornav,1266944431.01,0.0,0.0,0.0,-0.0950513407588,0.307759284973,-9.7921037674,0.00223246915266,0.000473416410387,0.00226255971938,0.0,0.0
2020/02/28/11:00:13.087257,647,1582909213,87215216,vectornav,1266944431.03,0.0,0.0,0.0,-0.112707562745,0.265388280153,-9.7550945282,-0.00150826317258,-0.00119849899784,0.00146640185267,0.0,0.0
2020/02/28/11:00:13.107278,648,1582909213,107226231,vectornav,1266944431.05,0.0,0.0,0.0,-0.097397916019,0.246061548591,-9.80866622925,0.00120157864876,-0.00119244656526,0.0014779586345,0.0,0.0
2020/02/28/11:00:13.127215,649,1582909213,127176045,vectornav,1266944431.07,0.0,0.0,0.0,-0.0867763981223,0.204745873809,-9.76385498047,0.00342278089374,-0.000434267567471,0.000365548767149,0.0,0.0
2020/02/28/11:00:13.147218,650,1582909213,147170815,vectornav,1266944431.09,0.0,0.0,0.0,-0.0711250528693,0.176501736045,-9.78111839294,-0.00173288653605,0.000706581398845,-0.00106982048601,0.0,0.0
2020/02/28/11:00:13.167258,651,1582909213,167187922,vectornav,1266944431.11,0.0,0.0,0.0,-0.0455622673035,0.201431468129,-9.77680778503,0.000864130153786,-0.000844804802909,-0.00117121823132,0.0,0.0
2020/02/28/11:00:13.187265,652,1582909213,187211686,vectornav,1266944431.13,0.0,0.0,0.0,-0.0606510937214,0.235105127096,-9.72624111176,0.00255100452341,0.000178285874426,-0.00200791377574,0.0,0.0
2020/02/28/11:00:13.207171,653,1582909213,207140811,vectornav,1266944431.15,0.0,0.0,0.0,-0.0405512750149,0.262631684542,-9.73786067963,-0.00353598967195,0.000236773164943,-0.00147515814751,0.0,0.0
2020/02/28/11:00:13.227217,654,1582909213,227175186,vectornav,1266944431.17,0.0,0.0,0.0,-0.0262184310704,0.26738935709,-9.74921894073,-0.00225065741688,2.58742365986e-05,-0.00152051169425,0.0,0.0
2020/02/28/11:00:13.247211,655,1582909213,247180280,vectornav,1266944431.19,0.0,0.0,0.0,-0.0244444627315,0.260904759169,-9.78051948547,-0.0014241450699,-0.000500118359923,-0.00069413613528,0.0,0.0
2020/02/28/11:00:13.267185,656,1582909213,267149725,vectornav,1266944431.21,0.0,0.0,0.0,-0.0543100461364,0.252486795187,-9.79191112518,-0.00488834641874,7.56084918976e-05,-0.000139600597322,0.0,0.0
2020/02/28/11:00:13.287231,657,1582909213,287152693,vectornav,1266944431.23,0.0,0.0,0.0,-0.0441843271255,0.271266698837,-9.8213262558,-0.00410432834178,-0.000435294350609,0.000541937537491,0.0,0.0
2020/02/28/11:00:13.307152,658,1582909213,307116690,vectornav,1266944431.25,0.0,0.0,0.0,-0.0565247535706,0.268749415874,-9.78927612305,-0.000870846095495,-0.000738597242162,0.00141477398574,0.0,0.0
2020/02/28/11:00:13.327145,659,1582909213,327105720,vectornav,1266944431.27,0.0,0.0,0.0,-0.0712888762355,0.290029287338,-9.7797498703,-0.0019039795734,-5.92698343098e-05,0.000760572962463,0.0,0.0
2020/02/28/11:00:13.347224,660,1582909213,347154881,vectornav,1266944431.29,0.0,0.0,0.0,-0.066243276,0.275636941195,-9.76333904266,-0.00239056674764,-0.000564946327358,0.000467815436423,0.0,0.0
2020/02/28/11:00:13.367152,661,1582909213,367094036,vectornav,1266944431.31,0.0,0.0,0.0,-0.0813438147306,0.293859750032,-9.77524852753,-0.00184281845577,0.000414040638134,0.00256294105202,0.0,0.0
2020/02/28/11:00:13.387205,662,1582909213,387139823,vectornav,1266944431.33,0.0,0.0,0.0,-0.0855755656958,0.299435734749,-9.76144790649,-0.000304541114019,-0.000880903564394,0.00144562963396,0.0,0.0
2020/02/28/11:00:13.407115,663,1582909213,407079582,vectornav,1266944431.35,0.0,0.0,0.0,-0.0651937276125,0.318040370941,-9.74772834778,-0.00147460924927,1.00408215076e-05,0.00172679405659,0.0,0.0
2020/02/28/11:00:13.427184,664,1582909213,427123357,vectornav,1266944431.37,0.0,0.0,0.0,-0.0887940376997,0.298184871674,-9.77209281921,-0.000530580815393,-0.000432322500274,0.00108370184898,0.0,0.0
2020/02/28/11:00:13.447116,665,1582909213,447034584,vectornav,1266944431.39,0.0,0.0,0.0,-0.0934835076332,0.26928883791,-9.77540588379,-0.000429958163295,-0.00111754867248,-0.00030411593616,0.0,0.0
2020/02/28/11:00:13.467092,666,1582909213,467057980,vectornav,1266944431.41,0.0,0.0,0.0,-0.0844835713506,0.262869685888,-9.80591011047,0.00101001537405,-0.000337065430358,-0.000695201568305,0.0,0.0
2020/02/28/11:00:13.487103,667,1582909213,487064679,vectornav,1266944431.43,0.0,0.0,0.0,-0.0937188714743,0.279186785221,-9.78195381165,0.00104780565016,0.000830359989777,-0.000944492407143,0.0,0.0
2020/02/28/11:00:13.507088,668,1582909213,507027522,vectornav,1266944431.45,0.0,0.0,0.0,-0.122250050306,0.268394291401,-9.79286670685,0.0010778302094,0.000370166264474,-0.000363287515938,0.0,0.0
2020/02/28/11:00:13.527087,669,1582909213,527043933,vectornav,1266944431.47,0.0,0.0,0.0,-0.157263562083,0.268202960491,-9.80127906799,0.0014385341201,0.00133924908005,-0.00093162432313,0.0,0.0
2020/02/28/11:00:13.547104,670,1582909213,547028926,vectornav,1266944431.49,0.0,0.0,0.0,-0.119399160147,0.278385519981,-9.79229640961,0.00257536349818,-0.000137415947393,-0.00199249666184,0.0,0.0
2020/02/28/11:00:13.567073,671,1582909213,567047406,vectornav,1266944431.51,0.0,0.0,0.0,-0.101718381047,0.281445503235,-9.77836227417,0.00256423116662,-0.00143547123298,-0.00169355794787,0.0,0.0
2020/02/28/11:00:13.587068,672,1582909213,587031475,vectornav,1266944431.53,0.0,0.0,0.0,-0.123237222433,0.263776659966,-9.77832794189,0.00013685534941,4.26771584898e-05,-0.00117139983922,0.0,0.0
2020/02/28/11:00:13.607195,673,1582909213,607133682,vectornav,1266944431.55,0.0,0.0,0.0,-0.122619360685,0.25515037775,-9.83730125427,0.00183221965563,-0.000400361372158,-0.00120204035193,0.0,0.0
2020/02/28/11:00:13.627122,674,1582909213,627078508,vectornav,1266944431.57,0.0,0.0,0.0,-0.124880224466,0.243017479777,-9.77154445648,0.00238596578129,-0.000236700288951,0.00165935698897,0.0,0.0
2020/02/28/11:00:13.647122,675,1582909213,647047763,vectornav,1266944431.59,0.0,0.0,0.0,-0.151162207127,0.220295116305,-9.78228282928,0.000118162424769,-0.00145053956658,0.0016540819779,0.0,0.0
2020/02/28/11:00:13.667126,676,1582909213,667056128,vectornav,1266944431.61,0.0,0.0,0.0,-0.138431370258,0.221329286695,-9.78178596497,-0.000563143286854,0.000487127806991,0.00138523522764,0.0,0.0
2020/02/28/11:00:13.687008,677,1582909213,686965524,vectornav,1266944431.63,0.0,0.0,0.0,-0.139891207218,0.207540377975,-9.72367668152,-0.000351614318788,-0.000116074923426,0.00104204099625,0.0,0.0
2020/02/28/11:00:13.707024,678,1582909213,706990627,vectornav,1266944431.65,0.0,0.0,0.0,-0.09935118258,0.209045857191,-9.77678489685,-0.00215486763045,-0.00119677046314,0.00200948212296,0.0,0.0
2020/02/28/11:00:13.727067,679,1582909213,727018210,vectornav,1266944431.67,0.0,0.0,0.0,-0.121348470449,0.250758260489,-9.76455879211,-0.00153197092004,5.24541828781e-05,0.00010569114238,0.0,0.0
2020/02/28/11:00:13.747188,680,1582909213,747125973,vectornav,1266944431.69,0.0,0.0,0.0,-0.102358907461,0.248664602637,-9.79800987244,-0.00117334187962,-0.00210804631934,-0.000509013421834,0.0,0.0
2020/02/28/11:00:13.767171,681,1582909213,767110264,vectornav,1266944431.71,0.0,0.0,0.0,-0.0779165774584,0.260011404753,-9.77093505859,-0.00431720074266,-0.000691882800311,-0.000359068624675,0.0,0.0
2020/02/28/11:00:13.787082,682,1582909213,786977628,vectornav,1266944431.73,0.0,0.0,0.0,-0.116629630327,0.288165837526,-9.79748249054,-0.00116444285959,0.00133796944283,-0.000424709171057,0.0,0.0
2020/02/28/11:00:13.806973,683,1582909213,806930937,vectornav,1266944431.75,0.0,0.0,0.0,-0.111404657364,0.301732838154,-9.72738552094,-0.000628710375167,0.000305191148072,-4.74276021123e-05,0.0,0.0
2020/02/28/11:00:13.827211,684,1582909213,827101871,vectornav,1266944431.77,0.0,0.0,0.0,-0.10900221765,0.319090813398,-9.75131797791,-0.0023095025681,-0.000419693533331,-0.00129891559482,0.0,0.0
2020/02/28/11:00:13.847022,685,1582909213,846927282,vectornav,1266944431.79,0.0,0.0,0.0,-0.108583331108,0.302838206291,-9.78778076172,-0.000160542142112,-0.000644393730909,-0.000514630228281,0.0,0.0
2020/02/28/11:00:13.867228,686,1582909213,867139484,vectornav,1266944431.81,0.0,0.0,0.0,-0.0927600264549,0.307554155588,-9.74726390839,-0.000411250453908,-0.000839760061353,-0.00112463627011,0.0,0.0
2020/02/28/11:00:13.887039,687,1582909213,886956940,vectornav,1266944431.83,0.0,0.0,0.0,-0.103034958243,0.309221595526,-9.79369449615,0.00129774282686,-0.000167432706803,-0.00035188253969,0.0,0.0
2020/02/28/11:00:13.907113,688,1582909213,907065594,vectornav,1266944431.85,0.0,0.0,0.0,0.125520214438,0.273155480623,-9.72639465332,-0.000681527948473,-0.000561062712222,-0.000499193556607,0.0,0.0
2020/02/28/11:00:13.926985,689,1582909213,926921658,vectornav,1266944431.87,0.0,0.0,0.0,0.243229582906,0.298807471991,-9.78940105438,-0.000144644582178,0.00119120324962,0.00153172947466,0.0,0.0
2020/02/28/11:00:13.946991,690,1582909213,946948829,vectornav,1266944431.89,0.0,0.0,0.0,0.284560382366,0.249762997031,-10.0359020233,0.00191622180864,0.00286878785118,0.000548206269741,0.0,0.0
2020/02/28/11:00:13.966952,691,1582909213,966904527,vectornav,1266944431.91,0.0,0.0,0.0,0.249612167478,0.242225363851,-9.70308589935,0.00731809809804,0.00369693315588,-3.82773578167e-07,0.0,0.0
2020/02/28/11:00:13.987012,692,1582909213,986916402,vectornav,1266944431.93,0.0,0.0,0.0,0.0689608752728,0.272396206856,-9.50931453705,-0.00277768657543,0.00406001647934,6.27106055617e-05,0.0,0.0
2020/02/28/11:00:14.006943,693,1582909214,6901853,vectornav,1266944431.95,0.0,0.0,0.0,-0.0441339537501,0.242840617895,-9.59521007538,-0.00623332895339,0.00213090050966,-0.000347705557942,0.0,0.0
2020/02/28/11:00:14.027013,694,1582909214,26947882,vectornav,1266944431.97,0.0,0.0,0.0,-0.144280225039,0.219062209129,-9.61910533905,0.00550290290266,-0.00122252176516,-0.000968092121184,0.0,0.0
2020/02/28/11:00:14.046968,695,1582909214,46921059,vectornav,1266944431.99,0.0,0.0,0.0,-0.198607742786,0.244651302695,-9.74404430389,0.00506629422307,-0.00466315913945,6.29741698503e-05,0.0,0.0
2020/02/28/11:00:14.066985,696,1582909214,66905841,vectornav,1266944432.01,0.0,0.0,0.0,-0.138400882483,0.24645537138,-9.87916851044,0.00166761106811,-0.00398901244625,-0.000126193277538,0.0,0.0
2020/02/28/11:00:14.086998,697,1582909214,86900965,vectornav,1266944432.03,0.0,0.0,0.0,-0.0191020406783,0.260461211205,-9.96690273285,0.00353175890632,-0.00379170966335,-0.000595843419433,0.0,0.0
2020/02/28/11:00:14.107029,698,1582909214,106927229,vectornav,1266944432.05,0.0,0.0,0.0,0.115532830358,0.271981090307,-10.0318384171,0.000321510771755,-0.000741564203054,0.00125936884433,0.0,0.0
2020/02/28/11:00:14.126967,699,1582909214,126902489,vectornav,1266944432.07,0.0,0.0,0.0,0.227222174406,0.226154372096,-9.93837547302,-0.00237960508093,0.00292849773541,0.000700931064785,0.0,0.0
2020/02/28/11:00:14.146967,700,1582909214,146936102,vectornav,1266944432.09,0.0,0.0,0.0,0.233294323087,0.250574171543,-9.85968971252,-0.00201907800511,0.00692416308448,-0.00108041148633,0.0,0.0
2020/02/28/11:00:14.166958,701,1582909214,166883926,vectornav,1266944432.11,0.0,0.0,0.0,0.195326790214,0.263657659292,-9.62976932526,-0.00313724041916,0.00835714116693,-0.00134240649641,0.0,0.0
2020/02/28/11:00:14.186978,702,1582909214,186886598,vectornav,1266944432.13,0.0,0.0,0.0,0.0645318850875,0.229028135538,-9.54909133911,-0.00321568362415,0.00367520959117,0.000113155692816,0.0,0.0
2020/02/28/11:00:14.206971,703,1582909214,206911997,vectornav,1266944432.15,0.0,0.0,0.0,-0.044686883688,0.229958415031,-9.46800994873,0.000195879198145,0.00178858498111,-0.00232019461691,0.0,0.0
2020/02/28/11:00:14.226927,704,1582909214,226853329,vectornav,1266944432.17,0.0,0.0,0.0,-0.0910217314959,0.257336288691,-9.55384063721,-0.00100224022754,-0.00243104994297,-0.000733822584152,0.0,0.0
2020/02/28/11:00:14.246894,705,1582909214,246834894,vectornav,1266944432.19,0.0,0.0,0.0,-0.0424848124385,0.260556489229,-9.71210289001,-0.00095729646273,-0.00509398197755,0.000172263011336,0.0,0.0
2020/02/28/11:00:14.266911,706,1582909214,266866768,vectornav,1266944432.21,0.0,0.0,0.0,0.029588362202,0.264150083065,-9.89771461487,0.00014574767556,-0.00583026977256,0.000486869364977,0.0,0.0
2020/02/28/11:00:14.286927,707,1582909214,286879084,vectornav,1266944432.23,0.0,0.0,0.0,0.131909489632,0.322971850634,-10.0284814835,0.00209064502269,-0.00234161014669,0.00106585491449,0.0,0.0
2020/02/28/11:00:14.306986,708,1582909214,306871239,vectornav,1266944432.25,0.0,0.0,0.0,0.222457319498,0.280419677496,-10.0326452255,-0.000284451292828,0.00010650116019,0.00024601444602,0.0,0.0
2020/02/28/11:00:14.326927,709,1582909214,326856024,vectornav,1266944432.27,0.0,0.0,0.0,0.229423031211,0.269570618868,-9.98712158203,-0.00185674172826,0.00403724703938,0.000380348414183,0.0,0.0
2020/02/28/11:00:14.346906,710,1582909214,346855799,vectornav,1266944432.29,0.0,0.0,0.0,0.208709716797,0.285134404898,-9.88356781006,-0.00239613209851,0.00736921094358,0.000412033870816,0.0,0.0
2020/02/28/11:00:14.366910,711,1582909214,366811600,vectornav,1266944432.31,0.0,0.0,0.0,0.145613610744,0.266413897276,-9.71921825409,-0.00149618159048,0.0062240823172,0.00140806660056,0.0,0.0
2020/02/28/11:00:14.386929,712,1582909214,386887905,vectornav,1266944432.33,0.0,0.0,0.0,0.10232129693,0.276465445757,-9.59656715393,-0.00227304222062,0.00514049455523,0.000468015670776,0.0,0.0
2020/02/28/11:00:14.406887,713,1582909214,406849110,vectornav,1266944432.35,0.0,0.0,0.0,0.0741429179907,0.22687548399,-9.59724998474,-0.0030545333866,0.00112731265835,-0.000134492293,0.0,0.0
2020/02/28/11:00:14.426892,714,1582909214,426860297,vectornav,1266944432.37,0.0,0.0,0.0,0.0651930868626,0.224742546678,-9.62441825867,0.000967032683548,-0.00268183625303,-4.53069806099e-05,0.0,0.0
2020/02/28/11:00:14.446884,715,1582909214,446853167,vectornav,1266944432.39,0.0,0.0,0.0,0.107478961349,0.216383159161,-9.69429206848,0.00109209562652,-0.00409913621843,-0.000138780102134,0.0,0.0
2020/02/28/11:00:14.466859,716,1582909214,466822346,vectornav,1266944432.41,0.0,0.0,0.0,0.198074176908,0.231314361095,-9.83797931671,0.00046871957602,-0.00431522680447,-0.00140043348074,0.0,0.0
2020/02/28/11:00:14.486847,717,1582909214,486814653,vectornav,1266944432.43,0.0,0.0,0.0,0.256636828184,0.230425402522,-9.93668746948,-4.71188686788e-05,-0.00340004218742,-0.00117353349924,0.0,0.0
2020/02/28/11:00:14.506918,718,1582909214,506865774,vectornav,1266944432.45,0.0,0.0,0.0,0.287529736757,0.283471107483,-9.91887664795,0.00131207774393,0.000277159037068,-0.00210396945477,0.0,0.0
2020/02/28/11:00:14.526884,719,1582909214,526821421,vectornav,1266944432.47,0.0,0.0,0.0,0.277739793062,0.284943014383,-9.86360549927,-0.000265641167061,0.00265018315986,0.000333648175001,0.0,0.0
2020/02/28/11:00:14.546743,720,1582909214,546700671,vectornav,1266944432.49,0.0,0.0,0.0,0.243743881583,0.283626198769,-9.81212043762,-0.00283027859405,0.00280484557152,-0.000112004578114,0.0,0.0
2020/02/28/11:00:14.566724,721,1582909214,566696986,vectornav,1266944432.51,0.0,0.0,0.0,0.187994644046,0.271218925714,-9.78938674927,-0.000937798293307,0.00356400269084,-0.000472627580166,0.0,0.0
2020/02/28/11:00:14.586768,722,1582909214,586729322,vectornav,1266944432.53,0.0,0.0,0.0,0.178862676024,0.261823624372,-9.73063659668,-0.00114952889271,0.00257048523054,-0.000711908563972,0.0,0.0
2020/02/28/11:00:14.606748,723,1582909214,606708540,vectornav,1266944432.55,0.0,0.0,0.0,0.195218637586,0.257031321526,-9.6842880249,-0.00154834869318,0.000897130928934,0.000322623178363,0.0,0.0
2020/02/28/11:00:14.626757,724,1582909214,626711047,vectornav,1266944432.57,0.0,0.0,0.0,0.205479755998,0.236012548208,-9.73575592041,0.00118927750736,0.000544794369489,0.000350082293153,0.0,0.0
2020/02/28/11:00:14.646813,725,1582909214,646709438,vectornav,1266944432.59,0.0,0.0,0.0,0.252490460873,0.253600567579,-9.70463943481,0.0014062897535,-0.000733274035156,-0.000694245100021,0.0,0.0
2020/02/28/11:00:14.666734,726,1582909214,666689240,vectornav,1266944432.61,0.0,0.0,0.0,0.282174348831,0.243223294616,-9.78558731079,0.000643066363409,-0.00166880059987,-0.00215889327228,0.0,0.0
2020/02/28/11:00:14.686723,727,1582909214,686688384,vectornav,1266944432.63,0.0,0.0,0.0,0.299137622118,0.243143215775,-9.83030891418,0.00255551747978,-4.41274605691e-05,-0.00135085172951,0.0,0.0
2020/02/28/11:00:14.706807,728,1582909214,706767439,vectornav,1266944432.65,0.0,0.0,0.0,0.279900401831,0.276094794273,-9.80377006531,0.00430801603943,3.30288894475e-05,-0.00145072862506,0.0,0.0
2020/02/28/11:00:14.726776,729,1582909214,726697005,vectornav,1266944432.67,0.0,0.0,0.0,0.272511214018,0.271927386522,-9.78974628448,0.000891115807462,0.000586029607803,-0.000805409625173,0.0,0.0
2020/02/28/11:00:14.746713,730,1582909214,746678821,vectornav,1266944432.69,0.0,0.0,0.0,0.278902828693,0.212952300906,-9.84521770477,-0.000296595186228,-6.4822146669e-05,0.000328252092004,0.0,0.0
2020/02/28/11:00:14.766820,731,1582909214,766732345,vectornav,1266944432.71,0.0,0.0,0.0,0.252223849297,0.260341256857,-9.76400566101,0.00246033305302,0.000903547974303,-0.00193300284445,0.0,0.0
2020/02/28/11:00:14.786847,732,1582909214,786783909,vectornav,1266944432.73,0.0,0.0,0.0,0.26308965683,0.233663797379,-9.75453567505,0.00119852134958,-0.000809005694464,-0.00274060387164,0.0,0.0
2020/02/28/11:00:14.806771,733,1582909214,806700244,vectornav,1266944432.75,0.0,0.0,0.0,0.303454577923,0.22941711545,-9.8273267746,-0.000981993507594,0.0014268560335,-0.00213137827814,0.0,0.0
2020/02/28/11:00:14.826721,734,1582909214,826651228,vectornav,1266944432.77,0.0,0.0,0.0,0.326912164688,0.234107911587,-9.82736682892,0.00228545558639,-0.000104009639472,-0.002844305709,0.0,0.0
2020/02/28/11:00:14.846706,735,1582909214,846670979,vectornav,1266944432.79,0.0,0.0,0.0,0.346126914024,0.224985361099,-9.80408477783,0.00364745757543,0.00209634751081,-0.00259295664728,0.0,0.0
2020/02/28/11:00:14.866804,736,1582909214,866740844,vectornav,1266944432.81,0.0,0.0,0.0,0.346167564392,0.228430643678,-9.7728843689,0.000801038404461,0.00192673236597,-0.00141605455428,0.0,0.0
2020/02/28/11:00:14.886721,737,1582909214,886666097,vectornav,1266944432.83,0.0,0.0,0.0,0.347641766071,0.186600357294,-9.76175689697,0.00173055496998,0.000966753112152,-0.00202477630228,0.0,0.0
2020/02/28/11:00:14.906676,738,1582909214,906628597,vectornav,1266944432.85,0.0,0.0,0.0,0.338803648949,0.233212798834,-9.74393463135,0.00286519527435,0.00198667729273,-0.00281167216599,0.0,0.0
2020/02/28/11:00:14.926704,739,1582909214,926628536,vectornav,1266944432.87,0.0,0.0,0.0,0.327397286892,0.24027711153,-9.73712921143,0.00361505732872,0.00157086038962,-0.00184210762382,0.0,0.0
2020/02/28/11:00:14.946749,740,1582909214,946679101,vectornav,1266944432.89,0.0,0.0,0.0,0.308314859867,0.224869936705,-9.75398921967,-0.00084992335178,0.000316782388836,-0.00192623026669,0.0,0.0
2020/02/28/11:00:14.966719,741,1582909214,966654442,vectornav,1266944432.91,0.0,0.0,0.0,0.353888392448,0.261491835117,-9.78898239136,0.00061787100276,-0.000379647128284,-0.00205040164292,0.0,0.0
2020/02/28/11:00:14.986700,742,1582909214,986661852,vectornav,1266944432.93,0.0,0.0,0.0,0.370230048895,0.208739727736,-9.7575712204,0.0016000859905,-4.10957727581e-05,-0.00320914853364,0.0,0.0
2020/02/28/11:00:15.006755,743,1582909215,6704514,vectornav,1266944432.95,0.0,0.0,0.0,0.361550837755,0.23323482275,-9.80287742615,-0.00112325139344,0.000995531212538,-0.00414031650871,0.0,0.0
2020/02/28/11:00:15.026746,744,1582909215,26708111,vectornav,1266944432.97,0.0,0.0,0.0,0.412411093712,0.198278650641,-9.82040119171,-0.000203794217668,-0.000769827747717,-0.00350525509566,0.0,0.0
2020/02/28/11:00:15.046758,745,1582909215,46685351,vectornav,1266944432.99,0.0,0.0,0.0,0.407881706953,0.248248368502,-9.7928571701,0.000659964338411,0.000589040340856,-0.00559675227851,0.0,0.0
2020/02/28/11:00:15.066657,746,1582909215,66587192,vectornav,1266944433.01,0.0,0.0,0.0,0.436516106129,0.224681779742,-9.75048160553,-0.000776717206463,-0.000584851484746,-0.00539201311767,0.0,0.0
2020/02/28/11:00:15.086634,747,1582909215,86587573,vectornav,1266944433.03,0.0,0.0,0.0,0.421770364046,0.207173347473,-9.80479717255,0.000187870522495,0.00136063108221,-0.00526056531817,0.0,0.0
2020/02/28/11:00:15.106691,748,1582909215,106626341,vectornav,1266944433.05,0.0,0.0,0.0,0.456666618586,0.249599128962,-9.75768947601,0.00323145417497,0.00283338990994,-0.00564427580684,0.0,0.0
2020/02/28/11:00:15.126665,749,1582909215,126629992,vectornav,1266944433.07,0.0,0.0,0.0,0.46063876152,0.267467886209,-9.7066783905,0.00248694838956,0.00129690440372,-0.00493739545345,0.0,0.0
2020/02/28/11:00:15.146718,750,1582909215,146662017,vectornav,1266944433.09,0.0,0.0,0.0,0.471532404423,0.255797058344,-9.79999828339,0.000297873746604,0.00111894146539,-0.00545905902982,0.0,0.0
2020/02/28/11:00:15.166653,751,1582909215,166592496,vectornav,1266944433.11,0.0,0.0,0.0,0.535658657551,0.231215029955,-9.82440853119,0.00241429451853,0.000891404459253,-0.00712545961142,0.0,0.0
2020/02/28/11:00:15.186659,752,1582909215,186576004,vectornav,1266944433.13,0.0,0.0,0.0,0.547705471516,0.202470570803,-9.72980976105,0.003307440551,0.00215194001794,-0.00601615943015,0.0,0.0
2020/02/28/11:00:15.206635,753,1582909215,206581437,vectornav,1266944433.15,0.0,0.0,0.0,0.593914687634,0.205490767956,-9.8279876709,0.000527900992893,0.00191744160838,-0.00695348251611,0.0,0.0
2020/02/28/11:00:15.226619,754,1582909215,226584635,vectornav,1266944433.17,0.0,0.0,0.0,0.589643657207,0.18110832572,-9.79641056061,0.0042158793658,0.00187696912326,-0.00652699451894,0.0,0.0
2020/02/28/11:00:15.247672,755,1582909215,247623267,vectornav,1266944433.19,0.0,0.0,0.0,0.579542338848,0.196394234896,-9.70721244812,0.00311652384698,0.00149715249427,-0.00809702463448,0.0,0.0
2020/02/28/11:00:15.267606,756,1582909215,267552575,vectornav,1266944433.21,0.0,0.0,0.0,0.548607409,0.141841068864,-9.75792598724,-0.00120473001152,0.00340955401771,-0.00837367027998,0.0,0.0
2020/02/28/11:00:15.287654,757,1582909215,287587133,vectornav,1266944433.23,0.0,0.0,0.0,0.501262664795,0.203304931521,-9.76291465759,0.00444758823141,0.00136124156415,-0.008280322887,0.0,0.0
2020/02/28/11:00:15.307600,758,1582909215,307558399,vectornav,1266944433.25,0.0,0.0,0.0,0.483004868031,0.188787415624,-9.70059394836,0.00369927962311,-0.00114530697465,-0.00806584767997,0.0,0.0
2020/02/28/11:00:15.327628,759,1582909215,327542503,vectornav,1266944433.27,0.0,0.0,0.0,0.478212743998,0.218266323209,-9.78942108154,-0.00139043491799,-0.00112240342423,-0.009526043199,0.0,0.0
2020/02/28/11:00:15.347678,760,1582909215,347638382,vectornav,1266944433.29,0.0,0.0,0.0,0.532386600971,0.172723338008,-9.84352111816,0.00130577688105,-0.000563077861443,-0.010475391522,0.0,0.0
2020/02/28/11:00:15.367700,761,1582909215,367627488,vectornav,1266944433.31,0.0,0.0,0.0,0.553683459759,0.243732646108,-9.7870798111,-0.000325500528561,0.000784591771662,-0.00983596965671,0.0,0.0
2020/02/28/11:00:15.387585,762,1582909215,387550304,vectornav,1266944433.33,0.0,0.0,0.0,0.582383751869,0.190908402205,-9.82530212402,-0.00237501692027,-0.000748165184632,-0.0106441508979,0.0,0.0
2020/02/28/11:00:15.407568,763,1582909215,407531653,vectornav,1266944433.35,0.0,0.0,0.0,0.594835162163,0.14851012826,-9.88640213013,-0.00264740223065,0.00240568304434,-0.0101707614958,0.0,0.0
2020/02/28/11:00:15.427596,764,1582909215,427556216,vectornav,1266944433.37,0.0,0.0,0.0,0.527022004128,0.178106218576,-9.81373977661,-0.000438319053501,0.00251832627691,-0.0108981616795,0.0,0.0
2020/02/28/11:00:15.447514,765,1582909215,447463889,vectornav,1266944433.39,0.0,0.0,0.0,0.5135871768,0.170453980565,-9.74558830261,-0.00329240015708,0.00211221119389,-0.0100548602641,0.0,0.0
2020/02/28/11:00:15.467602,766,1582909215,467567644,vectornav,1266944433.41,0.0,0.0,0.0,0.426942169666,0.225780546665,-9.71578979492,6.81885285303e-06,0.00192030076869,-0.011717338115,0.0,0.0
2020/02/28/11:00:15.487546,767,1582909215,487497521,vectornav,1266944433.43,0.0,0.0,0.0,0.33477127552,0.229989647865,-9.68968391418,-0.00153503799811,-0.000743763754144,-0.0106657948345,0.0,0.0
2020/02/28/11:00:15.507539,768,1582909215,507465803,vectornav,1266944433.45,0.0,0.0,0.0,0.35067242384,0.259335100651,-9.68357276917,-0.000263690482825,-0.00231454777531,-0.0123679209501,0.0,0.0
2020/02/28/11:00:15.527540,769,1582909215,527496698,vectornav,1266944433.47,0.0,0.0,0.0,0.318645775318,0.20039203763,-9.73778152466,-0.00269287405536,-0.00154302618466,-0.0114567568526,0.0,0.0
2020/02/28/11:00:15.547490,770,1582909215,547451778,vectornav,1266944433.49,0.0,0.0,0.0,0.389656364918,0.251628577709,-9.87273979187,-0.00171500770375,-0.00195285864174,-0.0124578820542,0.0,0.0
2020/02/28/11:00:15.567568,771,1582909215,567476137,vectornav,1266944433.51,0.0,0.0,0.0,0.431179910898,0.212257832289,-9.90181064606,0.000584566500038,-0.000882611144334,-0.0136110577732,0.0,0.0
2020/02/28/11:00:15.587591,772,1582909215,587537859,vectornav,1266944433.53,0.0,0.0,0.0,0.490579277277,0.184877410531,-9.85591125488,0.00151701294817,0.00128254597075,-0.0137913711369,0.0,0.0
2020/02/28/11:00:15.607617,773,1582909215,607531764,vectornav,1266944433.55,0.0,0.0,0.0,0.470892488956,0.186850652099,-9.83990287781,-0.00414592726156,0.00284167425707,-0.0130024608225,0.0,0.0
2020/02/28/11:00:15.627528,774,1582909215,627482618,vectornav,1266944433.57,0.0,0.0,0.0,0.444389134645,0.223057970405,-9.8554391861,-0.00224799104035,0.00388270802796,-0.0137231079862,0.0,0.0
2020/02/28/11:00:15.647561,775,1582909215,647451947,vectornav,1266944433.59,0.0,0.0,0.0,0.392801493406,0.232217922807,-9.68924999237,0.00377398589626,0.00412307586521,-0.0145412106067,0.0,0.0
2020/02/28/11:00:15.667557,776,1582909215,667491527,vectornav,1266944433.61,0.0,0.0,0.0,0.304066330194,0.279628634453,-9.5738697052,0.000544832029846,0.00408994825557,-0.014294847846,0.0,0.0
2020/02/28/11:00:15.687484,777,1582909215,687420728,vectornav,1266944433.63,0.0,0.0,0.0,0.293085604906,0.286007672548,-9.74313545227,-0.00468267733231,0.00108236400411,-0.0148219112307,0.0,0.0
2020/02/28/11:00:15.707494,778,1582909215,707450573,vectornav,1266944433.65,0.0,0.0,0.0,0.290730446577,0.248664498329,-9.73729324341,0.00691369036213,-0.000642388127744,-0.0145059954375,0.0,0.0
2020/02/28/11:00:15.727466,779,1582909215,727422209,vectornav,1266944433.67,0.0,0.0,0.0,0.30581125617,0.213225886226,-9.74654769897,0.00455655111,-0.00218010530807,-0.0144356032833,0.0,0.0
2020/02/28/11:00:15.747549,780,1582909215,747414820,vectornav,1266944433.69,0.0,0.0,0.0,0.361406952143,0.183551236987,-9.90889835358,-0.00312517932616,-0.000237844884396,-0.0160373840481,0.0,0.0
2020/02/28/11:00:15.767437,781,1582909215,767391355,vectornav,1266944433.71,0.0,0.0,0.0,0.345235019922,0.207228064537,-10.0802822113,0.0017535625957,-0.00189277180471,-0.0142014101148,0.0,0.0
2020/02/28/11:00:15.787528,782,1582909215,787479058,vectornav,1266944433.73,0.0,0.0,0.0,0.393849462271,0.149310365319,-9.89534854889,0.00540086533874,0.000468889484182,-0.0163899790496,0.0,0.0
2020/02/28/11:00:15.807412,783,1582909215,807377233,vectornav,1266944433.75,0.0,0.0,0.0,0.36026725173,0.192691460252,-9.89348316193,-0.00262478576042,0.00419407477602,-0.0156135782599,0.0,0.0
2020/02/28/11:00:15.827568,784,1582909215,827511324,vectornav,1266944433.77,0.0,0.0,0.0,0.301631659269,0.244020402431,-9.82631397247,0.00391697464511,0.00357234082185,-0.0151981264353,0.0,0.0
2020/02/28/11:00:15.847496,785,1582909215,847422509,vectornav,1266944433.79,0.0,0.0,0.0,0.28974789381,0.229275420308,-9.62218761444,-0.000519777939189,0.00521982414648,-0.0166500397027,0.0,0.0
2020/02/28/11:00:15.867456,786,1582909215,867409397,vectornav,1266944433.81,0.0,0.0,0.0,0.24770835042,0.222343444824,-9.72369003296,-0.00412960955873,0.00419556722045,-0.0172270033509,0.0,0.0
2020/02/28/11:00:15.887437,787,1582909215,887393753,vectornav,1266944433.83,0.0,0.0,0.0,0.260280460119,0.15435127914,-9.67394733429,0.00696377456188,-0.00237980438396,-0.0182538051158,0.0,0.0
2020/02/28/11:00:15.907529,788,1582909215,907476145,vectornav,1266944433.85,0.0,0.0,0.0,0.287537544966,0.189365804195,-9.60376930237,0.00597990723327,0.000694684684277,-0.0177832134068,0.0,0.0
2020/02/28/11:00:15.927491,789,1582909215,927429218,vectornav,1266944433.87,0.0,0.0,0.0,0.297732621431,0.160490736365,-9.75117206573,-0.0072961403057,-0.000992863671854,-0.0172402374446,0.0,0.0
2020/02/28/11:00:15.947426,790,1582909215,947390170,vectornav,1266944433.89,0.0,0.0,0.0,0.340141445398,0.179562166333,-9.87393856049,0.00275598466396,0.000899870414287,-0.017999574542,0.0,0.0
2020/02/28/11:00:15.967488,791,1582909215,967398113,vectornav,1266944433.91,0.0,0.0,0.0,0.319067656994,0.17371994257,-9.87392902374,0.00164389144629,-0.000232725637034,-0.0187195278704,0.0,0.0
2020/02/28/11:00:15.987496,792,1582909215,987424551,vectornav,1266944433.93,0.0,0.0,0.0,0.347840130329,0.200883150101,-9.87001037598,0.006895869039,0.00178499997128,-0.0186978392303,0.0,0.0
2020/02/28/11:00:16.007395,793,1582909216,7342966,vectornav,1266944433.95,0.0,0.0,0.0,0.265709221363,0.224224165082,-9.8097038269,0.00426927488297,0.00233483640477,-0.0178227629513,0.0,0.0
2020/02/28/11:00:16.027418,794,1582909216,27366915,vectornav,1266944433.97,0.0,0.0,0.0,0.295425355434,0.176289439201,-9.83296775818,0.0008442797116,0.00387864885852,-0.0164796374738,0.0,0.0
2020/02/28/11:00:16.047432,795,1582909216,47367852,vectornav,1266944433.99,0.0,0.0,0.0,0.253251373768,0.193088144064,-9.81588459015,0.00433185370639,0.00369546981528,-0.0182125903666,0.0,0.0
2020/02/28/11:00:16.067448,796,1582909216,67371972,vectornav,1266944434.01,0.0,0.0,0.0,0.286006331444,0.233520567417,-9.75164985657,0.00303646130487,0.00364704313688,-0.0183267071843,0.0,0.0
2020/02/28/11:00:16.087488,797,1582909216,87432356,vectornav,1266944434.03,0.0,0.0,0.0,0.219938620925,0.189827859402,-9.73943328857,3.0186958611e-05,0.000476270215586,-0.0199181698263,0.0,0.0
2020/02/28/11:00:16.107414,798,1582909216,107351910,vectornav,1266944434.05,0.0,0.0,0.0,0.301080107689,0.177512168884,-9.79746437073,0.0102382525802,-0.000480739865452,-0.0201033726335,0.0,0.0
2020/02/28/11:00:16.127391,799,1582909216,127345191,vectornav,1266944434.07,0.0,0.0,0.0,0.30758523941,0.187456324697,-9.63340950012,0.0112653784454,0.00316327204928,-0.0206099711359,0.0,0.0
2020/02/28/11:00:16.147371,800,1582909216,147326651,vectornav,1266944434.09,0.0,0.0,0.0,0.292424738407,0.272314697504,-9.73710441589,-0.00136910378933,-0.000122542027384,-0.0209574401379,0.0,0.0
2020/02/28/11:00:16.167459,801,1582909216,167357226,vectornav,1266944434.11,0.0,0.0,0.0,0.306743621826,0.191331878304,-9.86252212524,0.00712454551831,-0.00114745087922,-0.0203561149538,0.0,0.0
2020/02/28/11:00:16.187348,802,1582909216,187312859,vectornav,1266944434.13,0.0,0.0,0.0,0.276292324066,0.321494996548,-9.73207569122,0.0183527059853,0.00139614194632,-0.0222634226084,0.0,0.0
2020/02/28/11:00:16.207355,803,1582909216,207309367,vectornav,1266944434.15,0.0,0.0,0.0,0.296043992043,0.243517592549,-9.61605739594,0.00610287673771,4.35363035649e-05,-0.0215942990035,0.0,0.0
2020/02/28/11:00:16.227380,804,1582909216,227333897,vectornav,1266944434.17,0.0,0.0,0.0,0.229765281081,0.23962636292,-9.83948612213,-0.00467390660197,0.000330501236022,-0.0220762118697,0.0,0.0
2020/02/28/11:00:16.247388,805,1582909216,247306677,vectornav,1266944434.19,0.0,0.0,0.0,0.316862463951,0.169981613755,-9.92426776886,0.0143130794168,0.000183267518878,-0.0215080492198,0.0,0.0
2020/02/28/11:00:16.267415,806,1582909216,267298161,vectornav,1266944434.21,0.0,0.0,0.0,0.274998605251,0.224783524871,-9.61896419525,0.0117885917425,0.00180469511542,-0.0215423703194,0.0,0.0
2020/02/28/11:00:16.287344,807,1582909216,287300251,vectornav,1266944434.23,0.0,0.0,0.0,0.334991455078,0.20427210629,-9.74308204651,-0.000961293873843,0.00287567358464,-0.022391077131,0.0,0.0
2020/02/28/11:00:16.307370,808,1582909216,307338707,vectornav,1266944434.25,0.0,0.0,0.0,0.361722171307,0.1662260741,-9.91909980774,0.00767798582092,0.00275914766826,-0.0207517109811,0.0,0.0
2020/02/28/11:00:16.327318,809,1582909216,327278770,vectornav,1266944434.27,0.0,0.0,0.0,0.326436161995,0.258246719837,-9.6523065567,0.0198139343411,0.00186128763016,-0.0204815864563,0.0,0.0
2020/02/28/11:00:16.347324,810,1582909216,347252302,vectornav,1266944434.29,0.0,0.0,0.0,0.33213531971,0.126608654857,-9.59180545807,0.00375684490427,0.00266609154642,-0.0225961171091,0.0,0.0
2020/02/28/11:00:16.367316,811,1582909216,367278988,vectornav,1266944434.31,0.0,0.0,0.0,0.304898440838,0.134455621243,-9.77314186096,-0.00394494691864,0.00238094804808,-0.0221710465848,0.0,0.0
2020/02/28/11:00:16.387382,812,1582909216,387321474,vectornav,1266944434.33,0.0,0.0,0.0,0.347219347954,0.13192512095,-9.78210258484,0.0116823958233,-0.00118240574375,-0.0224112048745,0.0,0.0
2020/02/28/11:00:16.407326,813,1582909216,407269617,vectornav,1266944434.35,0.0,0.0,0.0,0.312709331512,0.188754856586,-9.5863866806,0.0124090258032,-0.00173501227982,-0.023579377681,0.0,0.0
2020/02/28/11:00:16.427329,814,1582909216,427284331,vectornav,1266944434.37,0.0,0.0,0.0,0.325976252556,0.129092127085,-9.69291877747,-0.00513899605721,-0.000108737498522,-0.0238719843328,0.0,0.0
2020/02/28/11:00:16.447313,815,1582909216,447240298,vectornav,1266944434.39,0.0,0.0,0.0,0.327092945576,0.140359535813,-9.88075256348,0.00114643480629,-0.00253300950862,-0.025002008304,0.0,0.0
2020/02/28/11:00:16.467272,816,1582909216,467238001,vectornav,1266944434.41,0.0,0.0,0.0,0.362789690495,0.175628662109,-9.81930541992,0.0132032223046,-0.00450128875673,-0.0252550691366,0.0,0.0
2020/02/28/11:00:16.487332,817,1582909216,487267514,vectornav,1266944434.43,0.0,0.0,0.0,0.336698710918,0.203136712313,-9.5477848053,0.00706993369386,-0.00273444247432,-0.0257244948298,0.0,0.0
2020/02/28/11:00:16.507297,818,1582909216,507231528,vectornav,1266944434.45,0.0,0.0,0.0,0.33976650238,0.0763856694102,-9.87090682983,-0.0194636080414,0.000906847417355,-0.0257231667638,0.0,0.0
2020/02/28/11:00:16.527444,819,1582909216,527341027,vectornav,1266944434.47,0.0,0.0,0.0,0.318320333958,0.135889410973,-10.0827960968,0.00303090177476,-0.00065722130239,-0.0247238501906,0.0,0.0
2020/02/28/11:00:16.547344,820,1582909216,547245222,vectornav,1266944434.49,0.0,0.0,0.0,0.337581783533,0.097783125937,-9.66415596008,0.012275938876,-0.00267675006762,-0.0252750851214,0.0,0.0
2020/02/28/11:00:16.567349,821,1582909216,567216358,vectornav,1266944434.51,0.0,0.0,0.0,0.32781201601,0.174394011497,-9.6086769104,-0.013955575414,-0.0010615051724,-0.0248098801821,0.0,0.0
2020/02/28/11:00:16.587274,822,1582909216,587224464,vectornav,1266944434.53,0.0,0.0,0.0,0.308424055576,0.0818260610104,-9.99929714203,-0.0107885189354,-0.00284942425787,-0.0250517409295,0.0,0.0
2020/02/28/11:00:16.607237,823,1582909216,607209914,vectornav,1266944434.55,0.0,0.0,0.0,0.304570615292,0.174120947719,-9.82032585144,0.0155922453851,-0.0040231179446,-0.0248988978565,0.0,0.0
2020/02/28/11:00:16.627411,824,1582909216,627327325,vectornav,1266944434.57,0.0,0.0,0.0,0.317864775658,0.163489326835,-9.53235435486,0.00384261086583,-0.00296750804409,-0.0248019527644,0.0,0.0
2020/02/28/11:00:16.647388,825,1582909216,647284999,vectornav,1266944434.59,0.0,0.0,0.0,0.33597356081,0.0858378559351,-9.8537197113,-0.0207582265139,-0.00029327836819,-0.0249547623098,0.0,0.0
2020/02/28/11:00:16.667234,826,1582909216,667184413,vectornav,1266944434.61,0.0,0.0,0.0,0.338727116585,0.0470183752477,-10.0320577621,-0.00466516008601,-0.00247464003041,-0.0253224112093,0.0,0.0
2020/02/28/11:00:16.687232,827,1582909216,687182307,vectornav,1266944434.63,0.0,0.0,0.0,0.344697535038,0.221843972802,-9.68940734863,0.0100910440087,-0.0016227781307,-0.0256233178079,0.0,0.0
2020/02/28/11:00:16.707263,828,1582909216,707194961,vectornav,1266944434.65,0.0,0.0,0.0,0.317647695541,0.164517298341,-9.53786468506,-0.0159824434668,0.000190435908735,-0.024750418961,0.0,0.0
2020/02/28/11:00:16.727236,829,1582909216,727173754,vectornav,1266944434.67,0.0,0.0,0.0,0.34753203392,0.149915590882,-10.0482168198,-0.0209190323949,-0.001614902867,-0.026427064091,0.0,0.0
2020/02/28/11:00:16.747204,830,1582909216,747158785,vectornav,1266944434.69,0.0,0.0,0.0,0.320384144783,0.186917170882,-9.8553943634,0.01011350099,-0.00188398524188,-0.0257293786854,0.0,0.0
2020/02/28/11:00:16.767254,831,1582909216,767176002,vectornav,1266944434.71,0.0,0.0,0.0,0.327442348003,0.281695306301,-9.51836967468,0.00412768218666,-0.00353374052793,-0.0251457728446,0.0,0.0
2020/02/28/11:00:16.787340,832,1582909216,787252283,vectornav,1266944434.73,0.0,0.0,0.0,0.303052067757,0.292931675911,-9.80139541626,-0.0190091114491,-0.00115726725198,-0.0247562974691,0.0,0.0
2020/02/28/11:00:16.807142,833,1582909216,807110384,vectornav,1266944434.75,0.0,0.0,0.0,0.37358802557,0.190224289894,-9.89654159546,-0.00551266176626,0.000157473376021,-0.0267132632434,0.0,0.0
2020/02/28/11:00:16.827173,834,1582909216,827125680,vectornav,1266944434.77,0.0,0.0,0.0,0.273297667503,0.294837653637,-9.70307159424,0.00458226585761,-0.00474519468844,-0.0279392339289,0.0,0.0
2020/02/28/11:00:16.847248,835,1582909216,847206096,vectornav,1266944434.79,0.0,0.0,0.0,0.343087553978,0.310856282711,-9.69020843506,-0.00353428325616,-0.00372661137953,-0.0280411168933,0.0,0.0
2020/02/28/11:00:16.867247,836,1582909216,867126628,vectornav,1266944434.81,0.0,0.0,0.0,0.366273909807,0.183108121157,-9.73665809631,-0.0102058099583,-0.000102228019387,-0.0268967803568,0.0,0.0
2020/02/28/11:00:16.887270,837,1582909216,887163753,vectornav,1266944434.83,0.0,0.0,0.0,0.323804080486,0.115610383451,-9.91443061829,-0.00712881330401,-0.000171044142917,-0.0290324948728,0.0,0.0
2020/02/28/11:00:16.907176,838,1582909216,907136951,vectornav,1266944434.85,0.0,0.0,0.0,0.378632903099,0.170804843307,-9.81891059875,0.0110318604857,-0.00500770099461,-0.0283570401371,0.0,0.0
2020/02/28/11:00:16.927171,839,1582909216,927121551,vectornav,1266944434.87,0.0,0.0,0.0,0.380393862724,0.105027385056,-9.71094703674,0.0108605725691,0.000793652143329,-0.0286001898348,0.0,0.0
2020/02/28/11:00:16.947177,840,1582909216,947130519,vectornav,1266944434.89,0.0,0.0,0.0,0.396489471197,0.246677696705,-9.69303703308,0.00324610085227,0.000926948385313,-0.0292065702379,0.0,0.0
2020/02/28/11:00:16.967113,841,1582909216,967061587,vectornav,1266944434.91,0.0,0.0,0.0,0.369491934776,0.356787741184,-9.60365867615,0.0112143885344,-0.00131031614728,-0.0298623200506,0.0,0.0
2020/02/28/11:00:16.987071,842,1582909216,987037849,vectornav,1266944434.93,0.0,0.0,0.0,0.370493561029,0.317599445581,-9.68449783325,0.00599153339863,-0.00445577781647,-0.0304407980293,0.0,0.0
2020/02/28/11:00:17.007162,843,1582909217,7094688,vectornav,1266944434.95,0.0,0.0,0.0,0.362382203341,0.386886507273,-9.64389228821,0.0179644990712,-0.00332675501704,-0.0293125733733,0.0,0.0
2020/02/28/11:00:17.027113,844,1582909217,27074971,vectornav,1266944434.97,0.0,0.0,0.0,0.313684910536,0.307801604271,-9.57803344727,0.010179169476,-0.0047627245076,-0.0291927475482,0.0,0.0
2020/02/28/11:00:17.047112,845,1582909217,47060545,vectornav,1266944434.99,0.0,0.0,0.0,0.258671700954,0.262921124697,-9.92818641663,-0.0105245374143,-0.00450553093106,-0.0280606895685,0.0,0.0
2020/02/28/11:00:17.067094,846,1582909217,67028829,vectornav,1266944435.01,0.0,0.0,0.0,0.280852019787,0.182972192764,-10.239276886,0.0184626840055,-0.00291787134483,-0.0282406546175,0.0,0.0
2020/02/28/11:00:17.087150,847,1582909217,87043444,vectornav,1266944435.03,0.0,0.0,0.0,0.208827123046,0.259552270174,-9.82877922058,0.0162123721093,-0.00548927485943,-0.0295142810792,0.0,0.0
2020/02/28/11:00:17.107180,848,1582909217,107130461,vectornav,1266944435.05,0.0,0.0,0.0,0.228768736124,0.0373018532991,-9.97263813019,-0.00768822524697,-0.00311333057471,-0.0298381000757,0.0,0.0
2020/02/28/11:00:17.127094,849,1582909217,127058554,vectornav,1266944435.07,0.0,0.0,0.0,0.162990778685,0.108494877815,-10.3335046768,0.00480003748089,-0.00424706563354,-0.0286181475967,0.0,0.0
2020/02/28/11:00:17.147096,850,1582909217,147032159,vectornav,1266944435.09,0.0,0.0,0.0,0.171181946993,0.0754677429795,-9.76357650757,0.0274309106171,-0.00440939515829,-0.0278953313828,0.0,0.0
2020/02/28/11:00:17.167081,851,1582909217,167033942,vectornav,1266944435.11,0.0,0.0,0.0,0.253785043955,0.15729624033,-9.58871555328,-0.00570254726335,-0.00191468675621,-0.0311292596161,0.0,0.0
2020/02/28/11:00:17.187095,852,1582909217,187045039,vectornav,1266944435.13,0.0,0.0,0.0,0.260810673237,0.25499099493,-9.89863872528,-0.00211789971218,-0.00238025654107,-0.0285934880376,0.0,0.0
2020/02/28/11:00:17.207096,853,1582909217,207056905,vectornav,1266944435.15,0.0,0.0,0.0,0.252877056599,0.138145595789,-9.82422351837,0.0195999052376,-0.0113743478432,-0.0309962071478,0.0,0.0
2020/02/28/11:00:17.227074,854,1582909217,227028471,vectornav,1266944435.17,0.0,0.0,0.0,0.254995793104,0.236198753119,-9.45886039734,0.0213381368667,-0.0102606471628,-0.0304760765284,0.0,0.0
2020/02/28/11:00:17.247020,855,1582909217,246969623,vectornav,1266944435.19,0.0,0.0,0.0,0.258039474487,0.209504932165,-9.44837093353,-0.00536230532452,-0.00708785746247,-0.0308632515371,0.0,0.0
2020/02/28/11:00:17.267098,856,1582909217,267056747,vectornav,1266944435.21,0.0,0.0,0.0,0.281617671251,0.145436421037,-9.76205635071,-0.0146471271291,-0.00869211368263,-0.0299737751484,0.0,0.0
2020/02/28/11:00:17.287187,857,1582909217,287045555,vectornav,1266944435.23,0.0,0.0,0.0,0.299249351025,0.126423344016,-9.76199817657,0.0134235145524,-0.0117487441748,-0.0320979058743,0.0,0.0
2020/02/28/11:00:17.307012,858,1582909217,306967326,vectornav,1266944435.25,0.0,0.0,0.0,0.305279582739,0.152835011482,-9.42101097107,0.00851046293974,-0.0101416101679,-0.0306303277612,0.0,0.0
2020/02/28/11:00:17.327165,859,1582909217,327055055,vectornav,1266944435.27,0.0,0.0,0.0,0.295299530029,0.136602848768,-9.6999168396,-0.014941027388,-0.00772262085229,-0.0309774503112,0.0,0.0
2020/02/28/11:00:17.347017,860,1582909217,346982921,vectornav,1266944435.29,0.0,0.0,0.0,0.293605476618,0.0906943827868,-9.9551897049,0.00659831427038,-0.00735459802672,-0.030741404742,0.0,0.0
2020/02/28/11:00:17.366991,861,1582909217,366950137,vectornav,1266944435.31,0.0,0.0,0.0,0.349167525768,0.0448483116925,-9.72879505157,0.00793628487736,-0.00417570210993,-0.0320549383759,0.0,0.0
2020/02/28/11:00:17.387085,862,1582909217,386973325,vectornav,1266944435.33,0.0,0.0,0.0,0.308155179024,0.189034998417,-9.71842193604,-0.00292219780385,-0.00108243781142,-0.0302574820817,0.0,0.0
2020/02/28/11:00:17.407059,863,1582909217,407015082,vectornav,1266944435.35,0.0,0.0,0.0,0.352664411068,0.0817223340273,-9.86563968658,-0.00176499132067,-0.00279002683237,-0.0307029653341,0.0,0.0
2020/02/28/11:00:17.427066,864,1582909217,427033030,vectornav,1266944435.37,0.0,0.0,0.0,0.290398150682,0.183982700109,-9.80432701111,0.00106892420445,0.00106119923294,-0.0296917632222,0.0,0.0
2020/02/28/11:00:17.447004,865,1582909217,446959511,vectornav,1266944435.39,0.0,0.0,0.0,0.264814943075,0.181535303593,-9.68258953094,0.00440178532153,-0.00125766522251,-0.0279938690364,0.0,0.0
2020/02/28/11:00:17.467097,866,1582909217,466943436,vectornav,1266944435.41,0.0,0.0,0.0,0.267100453377,0.187026396394,-9.71871757507,-0.00470768054947,-0.00274497526698,-0.0287585034966,0.0,0.0
2020/02/28/11:00:17.487097,867,1582909217,487029319,vectornav,1266944435.43,0.0,0.0,0.0,0.303095638752,0.0467954874039,-9.8090429306,-0.0133581403643,0.000851820921525,-0.0292481034994,0.0,0.0
2020/02/28/11:00:17.506999,868,1582909217,506958411,vectornav,1266944435.45,0.0,0.0,0.0,0.238576546311,0.127647086978,-9.89995193481,-0.00302376365289,-0.00493490044028,-0.029717810452,0.0,0.0
2020/02/28/11:00:17.527000,869,1582909217,526943878,vectornav,1266944435.47,0.0,0.0,0.0,0.300275862217,0.151246577501,-9.78524589539,0.00233988976106,-0.00679689226672,-0.0303090643138,0.0,0.0
2020/02/28/11:00:17.547093,870,1582909217,546984346,vectornav,1266944435.49,0.0,0.0,0.0,0.247934505343,0.165647700429,-9.70911884308,-0.00894670467824,-0.00271541718394,-0.0296584628522,0.0,0.0
2020/02/28/11:00:17.566999,871,1582909217,566903589,vectornav,1266944435.51,0.0,0.0,0.0,0.293193608522,0.170836627483,-9.89277744293,-0.0189673285931,-0.000922312261537,-0.0312139187008,0.0,0.0
2020/02/28/11:00:17.587002,872,1582909217,586928603,vectornav,1266944435.53,0.0,0.0,0.0,0.278510004282,0.151825264096,-9.99811935425,0.000449942774139,-0.00598649308085,-0.0328971259296,0.0,0.0
2020/02/28/11:00:17.606944,873,1582909217,606903086,vectornav,1266944435.55,0.0,0.0,0.0,0.323644965887,0.084563344717,-9.82137966156,0.0017777052708,-0.0020714502316,-0.0321643352509,0.0,0.0
2020/02/28/11:00:17.626945,874,1582909217,626889630,vectornav,1266944435.57,0.0,0.0,0.0,0.247500613332,0.243177071214,-9.69310569763,-0.0158611927181,0.00311083113775,-0.0338699109852,0.0,0.0
2020/02/28/11:00:17.646971,875,1582909217,646929771,vectornav,1266944435.59,0.0,0.0,0.0,0.271090775728,0.193810597062,-9.89736461639,-0.0155254844576,0.000326060457155,-0.0329610519111,0.0,0.0
2020/02/28/11:00:17.666935,876,1582909217,666899184,vectornav,1266944435.61,0.0,0.0,0.0,0.272414773703,0.204377710819,-9.86657142639,0.00953951478004,0.00041939993389,-0.0326220989227,0.0,0.0
2020/02/28/11:00:17.686947,877,1582909217,686887675,vectornav,1266944435.63,0.0,0.0,0.0,0.254122495651,0.166819766164,-9.55545425415,-0.00619249464944,0.00410633720458,-0.032477222383,0.0,0.0
2020/02/28/11:00:17.706950,878,1582909217,706859177,vectornav,1266944435.65,0.0,0.0,0.0,0.264381557703,0.267536818981,-9.76413059235,-0.0160645768046,0.0026036365889,-0.0306614227593,0.0,0.0
2020/02/28/11:00:17.726965,879,1582909217,726896491,vectornav,1266944435.67,0.0,0.0,0.0,0.287382274866,0.251580119133,-9.71010398865,0.00103110494092,-0.00118149933405,-0.0311206504703,0.0,0.0
2020/02/28/11:00:17.746922,880,1582909217,746882579,vectornav,1266944435.69,0.0,0.0,0.0,0.31602320075,0.347292125225,-9.59852409363,0.00325813749805,-0.000243285438046,-0.0328769534826,0.0,0.0
2020/02/28/11:00:17.766926,881,1582909217,766857240,vectornav,1266944435.71,0.0,0.0,0.0,0.328381687403,0.177042230964,-9.51176834106,-0.0136700710282,0.000222577014938,-0.030075263232,0.0,0.0
2020/02/28/11:00:17.786945,882,1582909217,786905882,vectornav,1266944435.73,0.0,0.0,0.0,0.33995822072,0.208829671144,-9.8632068634,-0.0184391066432,0.00043675955385,-0.0288871582597,0.0,0.0
2020/02/28/11:00:17.806898,883,1582909217,806821925,vectornav,1266944435.75,0.0,0.0,0.0,0.362030178308,0.0673779696226,-9.79624462128,-0.00563090015203,-0.000359199941158,-0.0300698559731,0.0,0.0
2020/02/28/11:00:17.826936,884,1582909217,826885746,vectornav,1266944435.77,0.0,0.0,0.0,0.328041881323,0.146680340171,-9.69167518616,-0.0063423155807,-0.000114526133984,-0.0303152743727,0.0,0.0
2020/02/28/11:00:17.846977,885,1582909217,846919359,vectornav,1266944435.79,0.0,0.0,0.0,0.314373582602,0.209406852722,-9.76483535767,-0.0104839717969,0.00255396123976,-0.0297812987119,0.0,0.0
2020/02/28/11:00:17.866910,886,1582909217,866836392,vectornav,1266944435.81,0.0,0.0,0.0,0.331365197897,0.121341995895,-9.80871582031,-0.00800395477563,0.004713174887,-0.029050886631,0.0,0.0
2020/02/28/11:00:17.886941,887,1582909217,886855580,vectornav,1266944435.83,0.0,0.0,0.0,0.348380893469,0.13157248497,-9.80988883972,-0.0131463892758,0.00471934815869,-0.0279849227518,0.0,0.0
2020/02/28/11:00:17.906859,888,1582909217,906818482,vectornav,1266944435.85,0.0,0.0,0.0,0.238124161959,0.369573801756,-9.78632164001,0.000141631928273,0.00144654791802,-0.026372037828,0.0,0.0
2020/02/28/11:00:17.926934,889,1582909217,926827993,vectornav,1266944435.87,0.0,0.0,0.0,0.360588222742,0.412645846605,-9.53666687012,0.00541742937639,0.00380666763522,-0.0262119360268,0.0,0.0
2020/02/28/11:00:17.946911,890,1582909217,946826080,vectornav,1266944435.89,0.0,0.0,0.0,0.370464354753,0.403392165899,-9.56224441528,-0.014865915291,0.00555625557899,-0.0249125380069,0.0,0.0
2020/02/28/11:00:17.967839,891,1582909217,967796564,vectornav,1266944435.91,0.0,0.0,0.0,0.358416885138,0.27470651269,-9.75173568726,-0.017116419971,0.00107997935265,-0.0228624418378,0.0,0.0
2020/02/28/11:00:17.986889,892,1582909217,986819431,vectornav,1266944435.93,0.0,0.0,0.0,0.287322103977,0.359416544437,-9.7567615509,0.006477070041,0.000548984622583,-0.0234033316374,0.0,0.0
2020/02/28/11:00:18.006847,893,1582909218,6808894,vectornav,1266944435.95,0.0,0.0,0.0,0.269142091274,0.254331856966,-9.47543334961,0.00225327699445,-0.000413644127548,-0.0220766179264,0.0,0.0
2020/02/28/11:00:18.026947,894,1582909218,26901477,vectornav,1266944435.97,0.0,0.0,0.0,0.302385807037,0.285548985004,-9.77866363525,-0.00656083412468,-0.00175621500239,-0.0202386695892,0.0,0.0
2020/02/28/11:00:18.046912,895,1582909218,46831044,vectornav,1266944435.99,0.0,0.0,0.0,0.266053676605,0.26855096221,-9.91344833374,0.00584851577878,-0.00364338094369,-0.0195391364396,0.0,0.0
2020/02/28/11:00:18.066889,896,1582909218,66850126,vectornav,1266944436.01,0.0,0.0,0.0,0.242783889174,0.362215876579,-9.88179016113,0.0158966742456,-0.00309469387867,-0.018954474479,0.0,0.0
2020/02/28/11:00:18.086789,897,1582909218,86752273,vectornav,1266944436.03,0.0,0.0,0.0,0.266206264496,0.359959542751,-9.78875541687,0.0143339587376,-0.00367095717229,-0.017954852432,0.0,0.0
2020/02/28/11:00:18.107788,898,1582909218,107723497,vectornav,1266944436.05,0.0,0.0,0.0,0.262963116169,0.390285521746,-9.8807926178,0.0107188345864,-0.00357187213376,-0.017597887665,0.0,0.0
2020/02/28/11:00:18.126808,899,1582909218,126760818,vectornav,1266944436.07,0.0,0.0,0.0,0.334244638681,0.386159956455,-9.8518447876,0.0149387288839,-0.00268732942641,-0.0175792761147,0.0,0.0
2020/02/28/11:00:18.146786,900,1582909218,146737619,vectornav,1266944436.09,0.0,0.0,0.0,0.36329126358,0.255067169666,-9.6802444458,0.0170011110604,-0.00137573922984,-0.0210400056094,0.0,0.0
2020/02/28/11:00:18.167795,901,1582909218,167736386,vectornav,1266944436.11,0.0,0.0,0.0,0.354085206985,0.280151605606,-9.54261779785,0.00482757808641,-0.00400428287685,-0.021594338119,0.0,0.0
2020/02/28/11:00:18.186812,902,1582909218,186759039,vectornav,1266944436.13,0.0,0.0,0.0,0.378288269043,0.138904169202,-9.57124328613,0.00417899060994,-0.00535938888788,-0.0215591453016,0.0,0.0
2020/02/28/11:00:18.206865,903,1582909218,206796567,vectornav,1266944436.15,0.0,0.0,0.0,0.388996690512,0.16540338099,-9.47817993164,0.0180450249463,-0.0068934308365,-0.022986471653,0.0,0.0
2020/02/28/11:00:18.226876,904,1582909218,226807875,vectornav,1266944436.17,0.0,0.0,0.0,0.219303846359,0.230908870697,-9.34384059906,0.0183956734836,-0.0137027334422,-0.0214758943766,0.0,0.0
2020/02/28/11:00:18.246769,905,1582909218,246717517,vectornav,1266944436.19,0.0,0.0,0.0,0.294235318899,0.309366852045,-9.49954319,0.00373753346503,-0.0150086404756,-0.0220597796142,0.0,0.0
2020/02/28/11:00:18.266782,906,1582909218,266706066,vectornav,1266944436.21,0.0,0.0,0.0,0.253534555435,0.215071499348,-9.70436668396,-0.00212423410267,-0.0127089302987,-0.0232974402606,0.0,0.0
2020/02/28/11:00:18.287817,907,1582909218,287734207,vectornav,1266944436.23,0.0,0.0,0.0,0.271990150213,0.0310249440372,-9.87322235107,-0.00846404302865,-0.0103344107047,-0.0244716219604,0.0,0.0
2020/02/28/11:00:18.307728,908,1582909218,307692441,vectornav,1266944436.25,0.0,0.0,0.0,0.296190053225,0.0546158887446,-10.1479463577,-0.00710607459769,-0.0119346724823,-0.0237318463624,0.0,0.0
2020/02/28/11:00:18.327821,909,1582909218,327733365,vectornav,1266944436.27,0.0,0.0,0.0,0.28769543767,-0.258235067129,-10.2192134857,-0.00525694293901,-0.00529466662556,-0.0240014009178,0.0,0.0
2020/02/28/11:00:18.347738,910,1582909218,347706795,vectornav,1266944436.29,0.0,0.0,0.0,0.278257071972,0.0304012130946,-10.2945861816,0.00314737181179,-0.00245945784263,-0.0251002758741,0.0,0.0
2020/02/28/11:00:18.367833,911,1582909218,367758956,vectornav,1266944436.31,0.0,0.0,0.0,0.233897164464,0.160358607769,-10.0203971863,0.0203161295503,-0.00112284696661,-0.0240238085389,0.0,0.0
2020/02/28/11:00:18.387796,912,1582909218,387754732,vectornav,1266944436.33,0.0,0.0,0.0,0.260384589434,0.227281048894,-9.84572696686,0.00053391396068,0.00109265302308,-0.0232031308115,0.0,0.0
2020/02/28/11:00:18.407732,913,1582909218,407679411,vectornav,1266944436.35,0.0,0.0,0.0,0.231428533792,0.179284080863,-9.74758243561,-0.0083220936358,0.00392439775169,-0.0224965550005,0.0,0.0
2020/02/28/11:00:18.427746,914,1582909218,427684085,vectornav,1266944436.37,0.0,0.0,0.0,0.28750193119,0.313846617937,-9.8162355423,0.00191797013395,0.00237661972642,-0.0195669047534,0.0,0.0
2020/02/28/11:00:18.447733,915,1582909218,447700223,vectornav,1266944436.39,0.0,0.0,0.0,0.204156205058,0.457661598921,-9.41008090973,0.0109229721129,-0.00513006653637,-0.0197112932801,0.0,0.0
2020/02/28/11:00:18.467746,916,1582909218,467692136,vectornav,1266944436.41,0.0,0.0,0.0,0.226301968098,0.447187960148,-9.36295986176,-0.00673180446029,-0.00594157306477,-0.0195744242519,0.0,0.0
2020/02/28/11:00:18.487772,917,1582909218,487708075,vectornav,1266944436.43,0.0,0.0,0.0,0.175518840551,0.339081436396,-9.5937204361,-0.005908658728,-0.00927469134331,-0.0208384506404,0.0,0.0
2020/02/28/11:00:18.507774,918,1582909218,507680492,vectornav,1266944436.45,0.0,0.0,0.0,0.182883068919,0.264405399561,-9.7093667984,-0.00192129623611,-0.0149139584973,-0.0200295113027,0.0,0.0
2020/02/28/11:00:18.527765,919,1582909218,527681701,vectornav,1266944436.47,0.0,0.0,0.0,0.183037698269,0.201922371984,-9.69651317596,-0.00415854295716,-0.0172429326922,-0.0181149523705,0.0,0.0
2020/02/28/11:00:18.547768,920,1582909218,547701404,vectornav,1266944436.49,0.0,0.0,0.0,0.200901702046,0.0948970392346,-9.96024227142,-0.00333822262473,-0.0166810825467,-0.021018628031,0.0,0.0
2020/02/28/11:00:18.567729,921,1582909218,567684705,vectornav,1266944436.51,0.0,0.0,0.0,0.185055285692,0.067740701139,-10.1016426086,0.0161820072681,-0.0154150398448,-0.0228902511299,0.0,0.0
2020/02/28/11:00:18.587719,922,1582909218,587645322,vectornav,1266944436.53,0.0,0.0,0.0,0.228405281901,0.127280175686,-9.73711967468,0.00657982984558,-0.0158210024238,-0.0230570081621,0.0,0.0
2020/02/28/11:00:18.607697,923,1582909218,607666365,vectornav,1266944436.55,0.0,0.0,0.0,0.259326756001,0.207626715302,-9.88953876495,-0.00305210985243,-0.0120518887416,-0.0248463898897,0.0,0.0
2020/02/28/11:00:18.627753,924,1582909218,627707137,vectornav,1266944436.57,0.0,0.0,0.0,0.203498646617,0.189736798406,-10.0905733109,0.00957082491368,-0.0137040028349,-0.0261783953756,0.0,0.0
2020/02/28/11:00:18.647647,925,1582909218,647604590,vectornav,1266944436.59,0.0,0.0,0.0,0.225341275334,0.292048990726,-9.61528968811,0.0149509944022,-0.0112224556506,-0.027559414506,0.0,0.0
2020/02/28/11:00:18.667747,926,1582909218,667672223,vectornav,1266944436.61,0.0,0.0,0.0,0.380323380232,0.318459242582,-9.52520751953,-0.0101535972208,-0.00646420894191,-0.0263044983149,0.0,0.0
2020/02/28/11:00:18.687742,927,1582909218,687667036,vectornav,1266944436.63,0.0,0.0,0.0,0.313500016928,0.25544911623,-9.70238018036,-0.0120361587033,-0.00541014922783,-0.0257293079048,0.0,0.0
2020/02/28/11:00:18.707672,928,1582909218,707605960,vectornav,1266944436.65,0.0,0.0,0.0,0.246129855514,0.142395526171,-9.75221252441,-0.00194576662034,-0.00876107625663,-0.0267331339419,0.0,0.0
2020/02/28/11:00:18.727712,929,1582909218,727625269,vectornav,1266944436.67,0.0,0.0,0.0,0.235537230968,0.00904920324683,-9.63484764099,0.00590607523918,-0.00813808571547,-0.0254275221378,0.0,0.0
2020/02/28/11:00:18.747733,930,1582909218,747676967,vectornav,1266944436.69,0.0,0.0,0.0,0.262742698193,0.0496571362019,-9.60448741913,-0.00933955609798,-0.00684729870409,-0.0258017461747,0.0,0.0
2020/02/28/11:00:18.767617,931,1582909218,767568929,vectornav,1266944436.71,0.0,0.0,0.0,0.236790418625,0.159855589271,-9.8976392746,0.00817174464464,-0.00768489856273,-0.025828352198,0.0,0.0
2020/02/28/11:00:18.787691,932,1582909218,787588818,vectornav,1266944436.73,0.0,0.0,0.0,0.325118094683,0.0481024123728,-9.60371685028,0.0216479487717,-0.00724375387654,-0.0243221670389,0.0,0.0
2020/02/28/11:00:18.807594,933,1582909218,807548232,vectornav,1266944436.75,0.0,0.0,0.0,0.304924756289,0.190051853657,-9.40887355804,-0.00424780230969,-0.0043879323639,-0.0229857005179,0.0,0.0
2020/02/28/11:00:18.827718,934,1582909218,827609371,vectornav,1266944436.77,0.0,0.0,0.0,0.373453170061,0.203680604696,-9.80898094177,0.00219279550947,-0.00661297794431,-0.0225616376847,0.0,0.0
2020/02/28/11:00:18.847593,935,1582909218,847555986,vectornav,1266944436.79,0.0,0.0,0.0,0.30171173811,0.294666081667,-9.66964149475,0.0263041313738,-0.00763548072428,-0.0225863456726,0.0,0.0
2020/02/28/11:00:18.867733,936,1582909218,867636403,vectornav,1266944436.81,0.0,0.0,0.0,0.344079226255,0.327309668064,-9.32630729675,0.0035020573996,-0.00277736666612,-0.0222290121019,0.0,0.0
2020/02/28/11:00:18.887683,937,1582909218,887584278,vectornav,1266944436.83,0.0,0.0,0.0,0.404627472162,0.327515244484,-9.76357460022,-0.0165914017707,0.00128715415485,-0.0215519759804,0.0,0.0
2020/02/28/11:00:18.907604,938,1582909218,907569958,vectornav,1266944436.85,0.0,0.0,0.0,0.317761331797,0.0930647775531,-9.92807579041,0.00913169514388,0.00028494047001,-0.0205288324505,0.0,0.0
2020/02/28/11:00:18.927665,939,1582909218,927585225,vectornav,1266944436.87,0.0,0.0,0.0,0.327341884375,0.0510437488556,-9.80320358276,-0.00253023533151,0.00208936701529,-0.0224801115692,0.0,0.0
2020/02/28/11:00:18.947622,940,1582909218,947516276,vectornav,1266944436.89,0.0,0.0,0.0,0.25255638361,0.161444529891,-9.93956184387,-0.00810866057873,0.00653573637828,-0.0232617072761,0.0,0.0
2020/02/28/11:00:18.967629,941,1582909218,967568020,vectornav,1266944436.91,0.0,0.0,0.0,0.236121445894,0.142156392336,-10.0092182159,-0.000402956444304,0.00190900894813,-0.0242766588926,0.0,0.0
2020/02/28/11:00:18.987609,942,1582909218,987524242,vectornav,1266944436.93,0.0,0.0,0.0,0.303252011538,0.0402217656374,-10.0646800995,0.00373621331528,0.00673674698919,-0.0259831771255,0.0,0.0
2020/02/28/11:00:19.007633,943,1582909219,7522787,vectornav,1266944436.95,0.0,0.0,0.0,0.160840660334,-0.00736720580608,-9.97701740265,0.0093722557649,0.00294629880227,-0.0242510065436,0.0,0.0
2020/02/28/11:00:19.027607,944,1582909219,27530622,vectornav,1266944436.97,0.0,0.0,0.0,0.285846561193,0.238124549389,-9.92179393768,0.00940966233611,0.00275576720014,-0.0255131348968,0.0,0.0
2020/02/28/11:00:19.047580,945,1582909219,47544889,vectornav,1266944436.99,0.0,0.0,0.0,0.294109046459,0.254929602146,-9.76161193848,0.00941507704556,0.00317502580583,-0.0262709669769,0.0,0.0
2020/02/28/11:00:19.067578,946,1582909219,67534635,vectornav,1266944437.01,0.0,0.0,0.0,0.276439428329,0.204329162836,-9.6700630188,0.00258877896704,0.000492975348607,-0.0231739841402,0.0,0.0
2020/02/28/11:00:19.087574,947,1582909219,87526750,vectornav,1266944437.03,0.0,0.0,0.0,0.33107483387,0.354308396578,-9.55164337158,0.0061537087895,-0.00387989496812,-0.0244717746973,0.0,0.0
2020/02/28/11:00:19.107549,948,1582909219,107477302,vectornav,1266944437.05,0.0,0.0,0.0,0.39678645134,0.184302762151,-9.39164352417,0.013388922438,-0.00833401829004,-0.0241851340979,0.0,0.0
2020/02/28/11:00:19.127527,949,1582909219,127494530,vectornav,1266944437.07,0.0,0.0,0.0,0.371606826782,-0.172809451818,-9.37019824982,-0.0100699486211,-0.0072348350659,-0.0241628643125,0.0,0.0
2020/02/28/11:00:19.147494,950,1582909219,147451832,vectornav,1266944437.09,0.0,0.0,0.0,0.261569350958,0.325829833746,-9.61350250244,0.00371560757048,-0.0173683296889,-0.0242773629725,0.0,0.0
2020/02/28/11:00:19.167585,951,1582909219,167518791,vectornav,1266944437.11,0.0,0.0,0.0,0.325969278812,0.141730308533,-9.59735488892,0.0439215488732,-0.0212797299027,-0.0245011411607,0.0,0.0
2020/02/28/11:00:19.187531,952,1582909219,187489283,vectornav,1266944437.13,0.0,0.0,0.0,0.37377884984,-0.00135106220841,-9.4856338501,-0.00224967580289,-0.00946216937155,-0.0252171941102,0.0,0.0
2020/02/28/11:00:19.207487,953,1582909219,207447335,vectornav,1266944437.15,0.0,0.0,0.0,0.180696725845,-0.108047008514,-10.4752292633,-0.0299846213311,-0.0108731100336,-0.0269159451127,0.0,0.0
2020/02/28/11:00:19.227508,954,1582909219,227462626,vectornav,1266944437.17,0.0,0.0,0.0,0.339509963989,-0.0739633440971,-10.8692703247,0.0411385446787,-0.0155498795211,-0.026434617117,0.0,0.0
2020/02/28/11:00:19.247591,955,1582909219,247521980,vectornav,1266944437.19,0.0,0.0,0.0,0.396279007196,0.0760151818395,-9.8828792572,0.0323831178248,0.00461255386472,-0.0273586045951,0.0,0.0
2020/02/28/11:00:19.267512,956,1582909219,267468387,vectornav,1266944437.21,0.0,0.0,0.0,0.202538639307,0.246673747897,-10.0478219986,-0.0318138822913,0.0103665739298,-0.0296370703727,0.0,0.0
2020/02/28/11:00:19.287581,957,1582909219,287477091,vectornav,1266944437.23,0.0,0.0,0.0,0.385872215033,0.157306745648,-10.8222694397,-0.0110864751041,0.00359069579281,-0.0288119055331,0.0,0.0
2020/02/28/11:00:19.307518,958,1582909219,307446463,vectornav,1266944437.25,0.0,0.0,0.0,0.339904814959,0.0900935456157,-9.79786491394,0.0592264570296,0.00884774047881,-0.0267949197441,0.0,0.0
2020/02/28/11:00:19.327510,959,1582909219,327400769,vectornav,1266944437.27,0.0,0.0,0.0,0.23104532063,0.366957962513,-9.19564819336,-0.0190459955484,0.0180304050446,-0.0276719853282,0.0,0.0
2020/02/28/11:00:19.347599,960,1582909219,347472537,vectornav,1266944437.29,0.0,0.0,0.0,0.363204628229,0.123672418296,-9.87202262878,-0.029544480145,0.0113238850608,-0.0270286314189,0.0,0.0
2020/02/28/11:00:19.367497,961,1582909219,367397954,vectornav,1266944437.31,0.0,0.0,0.0,0.253530919552,0.204362615943,-9.69250106812,0.0208900291473,0.00286980858073,-0.0258183311671,0.0,0.0
2020/02/28/11:00:19.387485,962,1582909219,387400203,vectornav,1266944437.33,0.0,0.0,0.0,0.30300655961,-0.0207578185946,-9.02353286743,0.0156310126185,0.00632939813659,-0.0257322154939,0.0,0.0
2020/02/28/11:00:19.407504,963,1582909219,407411801,vectornav,1266944437.35,0.0,0.0,0.0,0.151874631643,0.113118886948,-9.41428279877,-0.0254650171846,-0.000596234109253,-0.0276708491147,0.0,0.0
2020/02/28/11:00:19.427474,964,1582909219,427413697,vectornav,1266944437.37,0.0,0.0,0.0,0.131310790777,-0.153267368674,-9.89994621277,-0.00104029313661,-0.0066903559491,-0.0278561785817,0.0,0.0
2020/02/28/11:00:19.447405,965,1582909219,447373939,vectornav,1266944437.39,0.0,0.0,0.0,0.232990086079,-0.0194594021887,-9.50295829773,0.027070524171,-0.0104632005095,-0.0285846721381,0.0,0.0
2020/02/28/11:00:19.467424,966,1582909219,467381464,vectornav,1266944437.41,0.0,0.0,0.0,0.168927848339,0.070367090404,-9.51321315765,-0.0043982877396,-0.00767188938335,-0.0275240540504,0.0,0.0
2020/02/28/11:00:19.487454,967,1582909219,487394461,vectornav,1266944437.43,0.0,0.0,0.0,0.285369724035,0.125645443797,-10.054526329,-0.0123658040538,-0.0104356780648,-0.0304335653782,0.0,0.0
2020/02/28/11:00:19.507478,968,1582909219,507421063,vectornav,1266944437.45,0.0,0.0,0.0,0.237013250589,0.180160582066,-10.1673049927,0.024738041684,-0.0124925859272,-0.0305780731142,0.0,0.0
2020/02/28/11:00:19.527426,969,1582909219,527386503,vectornav,1266944437.47,0.0,0.0,0.0,0.372571408749,0.255456537008,-9.9050655365,0.00791586749256,-0.00705671310425,-0.0303275473416,0.0,0.0
2020/02/28/11:00:19.547397,970,1582909219,547362238,vectornav,1266944437.49,0.0,0.0,0.0,0.146861642599,0.226090610027,-10.1273565292,-0.0101162586361,-0.00113483099267,-0.0314011722803,0.0,0.0
