time,.header.seq,.header.stamp.secs,.header.stamp.nsecs,.header.frame_id,.gps_time,.Mag.x,.Mag.y,.Mag.z,.Accel.x,.Accel.y,.Accel.z,.Gyro.x,.Gyro.y,.Gyro.z,.Temp,.Pressure
2020/02/28/11:32:47.534193,0,1582911167,534047313,vectornav,1266946385.52,0.0,0.0,0.0,-0.094453021884,-0.34022757411,-9.73654842377,0.000915786367841,-0.00105404341593,-0.000949079170823,0.0,0.0
2020/02/28/11:32:47.554146,1,1582911167,554035195,vectornav,1266946385.54,0.0,0.0,0.0,-0.120566770434,-0.356488198042,-9.76796627045,0.0001090625301,-0.00125001743436,-0.000148247927427,0.0,0.0
2020/02/28/11:32:47.576298,2,1582911167,574035868,vectornav,1266946385.56,0.0,0.0,0.0,-0.141749858856,-0.369635909796,-9.78176879883,0.00117324281018,0.000573595054448,0.00045923050493,0.0,0.0
2020/02/28/11:32:47.594102,3,1582911167,594044724,vectornav,1266946385.58,0.0,0.0,0.0,-0.130194038153,-0.343264520168,-9.79945373535,0.00232989853248,-0.000922377221286,-0.000618869438767,0.0,0.0
2020/02/28/11:32:47.615081,4,1582911167,614031892,vectornav,1266946385.6,0.0,0.0,0.0,-0.133211314678,-0.353518009186,-9.81313514709,-0.000483573821839,0.000950979301706,-0.000801715999842,0.0,0.0
2020/02/28/11:32:47.634058,5,1582911167,634021643,vectornav,1266946385.62,0.0,0.0,0.0,-0.117643624544,-0.34985691309,-9.7978553772,0.000538429187145,0.00108138518408,-0.000569955445826,0.0,0.0
2020/02/28/11:32:47.654122,6,1582911167,654069020,vectornav,1266946385.64,0.0,0.0,0.0,-0.133209049702,-0.351771891117,-9.77635765076,0.00141601962969,0.0007786876522,-0.000855881720781,0.0,0.0
2020/02/28/11:32:47.674007,7,1582911167,673970582,vectornav,1266946385.66,0.0,0.0,0.0,-0.135106354952,-0.333242356777,-9.75350856781,0.000405321421567,0.00129335722886,0.000702508725226,0.0,0.0
2020/02/28/11:32:47.694123,8,1582911167,694084277,vectornav,1266946385.68,0.0,0.0,0.0,-0.126406699419,-0.352639138699,-9.76205825806,-0.000344302825397,-4.79333102703e-05,0.000337942503393,0.0,0.0
2020/02/28/11:32:47.714125,9,1582911167,714018167,vectornav,1266946385.7,0.0,0.0,0.0,-0.109396353364,-0.35355079174,-9.78774452209,2.93013872579e-05,-0.000316326040775,-0.000762651674449,0.0,0.0
2020/02/28/11:32:47.734062,10,1582911167,734004766,vectornav,1266946385.72,0.0,0.0,0.0,-0.115068033338,-0.351512044668,-9.74059677124,0.000598079059273,0.00101483007893,-1.35852023959e-05,0.0,0.0
2020/02/28/11:32:47.754023,11,1582911167,753960320,vectornav,1266946385.74,0.0,0.0,0.0,-0.127969518304,-0.350151211023,-9.73874950409,-0.00206499779597,0.000999624608085,0.000967846252024,0.0,0.0
2020/02/28/11:32:47.773992,12,1582911167,773928221,vectornav,1266946385.76,0.0,0.0,0.0,-0.11266759038,-0.327257812023,-9.77570438385,-0.000302186526824,-0.000378572847694,-6.55790790915e-05,0.0,0.0
2020/02/28/11:32:47.794012,13,1582911167,793952996,vectornav,1266946385.78,0.0,0.0,0.0,-0.10327937454,-0.356703072786,-9.76959896088,-4.25930484198e-05,2.55289487541e-05,-0.0005186451599,0.0,0.0
2020/02/28/11:32:47.814023,14,1582911167,813966905,vectornav,1266946385.8,0.0,0.0,0.0,-0.12143035233,-0.343694597483,-9.76822566986,-0.000946834683418,0.000352142844349,-0.000392463989556,0.0,0.0
2020/02/28/11:32:47.834013,15,1582911167,833952623,vectornav,1266946385.82,0.0,0.0,0.0,-0.132775917649,-0.356898456812,-9.77841091156,-0.00075680896407,0.000297809951007,0.000599189661443,0.0,0.0
2020/02/28/11:32:47.853971,16,1582911167,853920964,vectornav,1266946385.84,0.0,0.0,0.0,-0.133572086692,-0.354942947626,-9.75411319733,-0.000435846188338,-0.000479938928038,0.00066652148962,0.0,0.0
2020/02/28/11:32:47.873981,17,1582911167,873947122,vectornav,1266946385.86,0.0,0.0,0.0,-0.0865269452333,-0.325075209141,-9.75560379028,-0.00109317025635,-0.00119532831013,-2.72607430816e-05,0.0,0.0
2020/02/28/11:32:47.893934,18,1582911167,893890043,vectornav,1266946385.88,0.0,0.0,0.0,-0.121304109693,-0.327204078436,-9.77597522736,-0.000500693451613,0.000173904933035,-0.000416883267462,0.0,0.0
2020/02/28/11:32:47.913925,19,1582911167,913873117,vectornav,1266946385.9,0.0,0.0,0.0,-0.135048285127,-0.320035099983,-9.79724597931,0.00058740505483,0.000502821989357,0.00106350518763,0.0,0.0
2020/02/28/11:32:47.933944,20,1582911167,933906356,vectornav,1266946385.92,0.0,0.0,0.0,-0.117516472936,-0.326965481043,-9.79433631897,0.000287955801468,0.000176492612809,-0.000650894828141,0.0,0.0
2020/02/28/11:32:47.954030,21,1582911167,953880171,vectornav,1266946385.94,0.0,0.0,0.0,-0.11897970736,-0.333720475435,-9.76281356812,0.000971407396719,-0.00021744845435,-0.00066964328289,0.0,0.0
2020/02/28/11:32:47.973935,22,1582911167,973888026,vectornav,1266946385.96,0.0,0.0,0.0,-0.102475307882,-0.339122831821,-9.76852035522,-0.000308829301503,-7.65318982303e-05,-0.00153379049152,0.0,0.0
2020/02/28/11:32:47.994006,23,1582911167,993913995,vectornav,1266946385.98,0.0,0.0,0.0,-0.108206801116,-0.339277356863,-9.75068092346,0.00172732886858,0.000158540438861,0.000167367048562,0.0,0.0
2020/02/28/11:32:48.014208,24,1582911168,14131534,vectornav,1266946386.0,0.0,0.0,0.0,-0.116448529065,-0.343487113714,-9.75877761841,0.00213093915954,0.000181414652616,0.00128832645714,0.0,0.0
2020/02/28/11:32:48.033920,25,1582911168,33878504,vectornav,1266946386.02,0.0,0.0,0.0,-0.133660033345,-0.353735506535,-9.73022842407,0.000738119415473,-3.68165783584e-05,0.00107039790601,0.0,0.0
2020/02/28/11:32:48.053954,26,1582911168,53901223,vectornav,1266946386.04,0.0,0.0,0.0,-0.129295527935,-0.371078342199,-9.77572727203,0.00121231540106,-0.000173836480826,0.000259597785771,0.0,0.0
2020/02/28/11:32:48.073894,27,1582911168,73866110,vectornav,1266946386.06,0.0,0.0,0.0,-0.146755144,-0.359300911427,-9.73677349091,0.000586524663959,0.000726942671463,7.1837566793e-05,0.0,0.0
2020/02/28/11:32:48.093990,28,1582911168,93881805,vectornav,1266946386.08,0.0,0.0,0.0,-0.117502622306,-0.329231292009,-9.76403999329,-0.000347989291186,4.22415323555e-05,9.50703397393e-05,0.0,0.0
2020/02/28/11:32:48.113945,29,1582911168,113906938,vectornav,1266946386.1,0.0,0.0,0.0,-0.138641417027,-0.357079267502,-9.75326538086,0.000432672735769,0.000504605006427,-0.000208451412618,0.0,0.0
2020/02/28/11:32:48.133898,30,1582911168,133822662,vectornav,1266946386.12,0.0,0.0,0.0,-0.105035878718,-0.338348597288,-9.77685165405,-4.59660077468e-05,-0.000158162787557,0.000235200859606,0.0,0.0
2020/02/28/11:32:48.153845,31,1582911168,153807062,vectornav,1266946386.14,0.0,0.0,0.0,-0.0944500118494,-0.357813388109,-9.78080558777,0.000555558770429,-0.000768012367189,0.00103168562055,0.0,0.0
2020/02/28/11:32:48.173830,32,1582911168,173802772,vectornav,1266946386.16,0.0,0.0,0.0,-0.0978903099895,-0.369555771351,-9.75523757935,-0.00145288254134,-0.000596334692091,7.29309394956e-05,0.0,0.0
2020/02/28/11:32:48.193867,33,1582911168,193800857,vectornav,1266946386.18,0.0,0.0,0.0,-0.114453114569,-0.363394021988,-9.7693939209,-3.15203797072e-05,0.000368793960661,0.000690002925694,0.0,0.0
2020/02/28/11:32:48.213873,34,1582911168,213785668,vectornav,1266946386.2,0.0,0.0,0.0,-0.126956418157,-0.332941234112,-9.74151515961,0.000995704671368,-0.00106578459963,-0.00019805226475,0.0,0.0
2020/02/28/11:32:48.233812,35,1582911168,233780194,vectornav,1266946386.22,0.0,0.0,0.0,-0.0991657525301,-0.348605066538,-9.75567722321,-6.12211297266e-05,0.000303510110825,0.000243035145104,0.0,0.0
2020/02/28/11:32:48.253911,36,1582911168,253838256,vectornav,1266946386.24,0.0,0.0,0.0,-0.105044193566,-0.326352119446,-9.74360847473,-0.000367888191249,2.0164065063e-05,-5.13335689902e-05,0.0,0.0
2020/02/28/11:32:48.273818,37,1582911168,273748439,vectornav,1266946386.26,0.0,0.0,0.0,-0.151972740889,-0.328467100859,-9.73347377777,-0.000120812910609,-0.000169531907886,-0.000270525924861,0.0,0.0
2020/02/28/11:32:48.293830,38,1582911168,293752942,vectornav,1266946386.28,0.0,0.0,0.0,-0.145078718662,-0.356744855642,-9.77131080627,-0.000342645565979,0.00138630904257,-0.0012702299282,0.0,0.0
2020/02/28/11:32:48.313959,39,1582911168,313858091,vectornav,1266946386.3,0.0,0.0,0.0,-0.110072664917,-0.346600621939,-9.77601051331,0.000580321182497,-0.000450885389,0.000351485796273,0.0,0.0
2020/02/28/11:32:48.334881,40,1582911168,334822067,vectornav,1266946386.32,0.0,0.0,0.0,-0.133421719074,-0.320392251015,-9.78329086304,0.000563701440115,0.000661537516862,0.000704656355083,0.0,0.0
2020/02/28/11:32:48.353841,41,1582911168,353748336,vectornav,1266946386.34,0.0,0.0,0.0,-0.112262569368,-0.347881317139,-9.77506542206,-0.000148129765876,-0.000484745483845,-0.000216320157051,0.0,0.0
2020/02/28/11:32:48.373797,42,1582911168,373756494,vectornav,1266946386.36,0.0,0.0,0.0,-0.120815075934,-0.349536776543,-9.74174499512,0.000715272151865,-0.000486041419208,1.09858810902e-05,0.0,0.0
2020/02/28/11:32:48.393772,43,1582911168,393734549,vectornav,1266946386.38,0.0,0.0,0.0,-0.116767175496,-0.35586643219,-9.75149345398,0.000694032642059,-0.00123260868713,-0.000617704354227,0.0,0.0
2020/02/28/11:32:48.413833,44,1582911168,413760672,vectornav,1266946386.4,0.0,0.0,0.0,-0.121844954789,-0.359710037708,-9.77922916412,-0.000247158051934,-0.000219745095819,-1.66883692145e-05,0.0,0.0
2020/02/28/11:32:48.433776,45,1582911168,433709610,vectornav,1266946386.42,0.0,0.0,0.0,-0.12424544245,-0.343704581261,-9.74964141846,0.000916155346204,-0.000106200575829,-0.000108038075268,0.0,0.0
2020/02/28/11:32:48.454754,46,1582911168,454710974,vectornav,1266946386.44,0.0,0.0,0.0,-0.128140181303,-0.344853818417,-9.78264427185,0.000927894143388,0.00154680619016,0.00022704154253,0.0,0.0
2020/02/28/11:32:48.474762,47,1582911168,474699960,vectornav,1266946386.46,0.0,0.0,0.0,-0.114407874644,-0.347433328629,-9.75920391083,0.000226783973631,-0.00037178164348,0.000786200165749,0.0,0.0
2020/02/28/11:32:48.493790,48,1582911168,493743001,vectornav,1266946386.48,0.0,0.0,0.0,-0.110463820398,-0.362803399563,-9.7555809021,0.000242486014031,-0.000856325030327,0.00125965103507,0.0,0.0
2020/02/28/11:32:48.514804,49,1582911168,514711739,vectornav,1266946386.5,0.0,0.0,0.0,-0.112699098885,-0.357392370701,-9.7787399292,0.000172845553607,0.000510262325406,7.64541327953e-05,0.0,0.0
2020/02/28/11:32:48.534960,50,1582911168,534865252,vectornav,1266946386.52,0.0,0.0,0.0,-0.117120273411,-0.352798849344,-9.72790527344,0.000417009927332,0.000543967820704,-0.000355307944119,0.0,0.0
2020/02/28/11:32:48.554810,51,1582911168,554741843,vectornav,1266946386.54,0.0,0.0,0.0,-0.10044491291,-0.365184545517,-9.75391769409,0.000335654069204,0.00023095915094,0.000656547024846,0.0,0.0
2020/02/28/11:32:48.574744,52,1582911168,574702266,vectornav,1266946386.56,0.0,0.0,0.0,-0.127806827426,-0.352157920599,-9.76386070251,0.000457977352198,0.000255897641182,0.00070742238313,0.0,0.0
2020/02/28/11:32:48.594742,53,1582911168,594690516,vectornav,1266946386.58,0.0,0.0,0.0,-0.111012384295,-0.357029944658,-9.76913261414,-4.90266829729e-05,0.000289786141366,0.00120274815708,0.0,0.0
2020/02/28/11:32:48.614748,54,1582911168,614695194,vectornav,1266946386.6,0.0,0.0,0.0,-0.108299478889,-0.329660922289,-9.78382301331,0.000260281201918,-0.00146363861859,0.000396643765271,0.0,0.0
2020/02/28/11:32:48.634779,55,1582911168,634686426,vectornav,1266946386.62,0.0,0.0,0.0,-0.113856673241,-0.338354736567,-9.75016403198,-0.0001304129255,-0.00135888671502,-0.000669303350151,0.0,0.0
2020/02/28/11:32:48.654783,56,1582911168,654715212,vectornav,1266946386.64,0.0,0.0,0.0,-0.120449244976,-0.339794456959,-9.78555297852,-0.000255601014942,-2.36975029111e-05,9.05925408006e-05,0.0,0.0
2020/02/28/11:32:48.674714,57,1582911168,674670791,vectornav,1266946386.66,0.0,0.0,0.0,-0.127540871501,-0.372157692909,-9.78969955444,-0.00077468942618,1.07921659946e-05,0.000694899819791,0.0,0.0
2020/02/28/11:32:48.694719,58,1582911168,694669473,vectornav,1266946386.68,0.0,0.0,0.0,-0.132690414786,-0.364798992872,-9.80392074585,8.15771636553e-05,7.00764358044e-05,-0.00041647721082,0.0,0.0
2020/02/28/11:32:48.714678,59,1582911168,714615198,vectornav,1266946386.7,0.0,0.0,0.0,-0.134762331843,-0.319661289454,-9.77642250061,-6.39905920252e-06,-0.000453373417258,-0.000873122364283,0.0,0.0
2020/02/28/11:32:48.734699,60,1582911168,734650025,vectornav,1266946386.72,0.0,0.0,0.0,-0.13742788136,-0.346125721931,-9.75660514832,-4.26342594437e-05,-0.000288979150355,0.000441326759756,0.0,0.0
2020/02/28/11:32:48.754685,61,1582911168,754647490,vectornav,1266946386.74,0.0,0.0,0.0,-0.144481524825,-0.352254122496,-9.75423908234,-0.00104224751703,-0.000565526075661,-0.0008663861081,0.0,0.0
2020/02/28/11:32:48.774707,62,1582911168,774632507,vectornav,1266946386.76,0.0,0.0,0.0,-0.129005566239,-0.327848672867,-9.77268314362,0.000705581565853,-0.000668333377689,0.000623513944447,0.0,0.0
2020/02/28/11:32:48.794703,63,1582911168,794639226,vectornav,1266946386.78,0.0,0.0,0.0,-0.137583658099,-0.346480697393,-9.71136188507,7.53389322199e-05,-0.000802450813353,0.000769286416471,0.0,0.0
2020/02/28/11:32:48.814686,64,1582911168,814632890,vectornav,1266946386.8,0.0,0.0,0.0,-0.119709827006,-0.359928965569,-9.76474475861,0.000120623677503,0.000693516340107,0.0007514199242,0.0,0.0
2020/02/28/11:32:48.834703,65,1582911168,834661741,vectornav,1266946386.82,0.0,0.0,0.0,-0.139031663537,-0.364120155573,-9.79501152039,-8.44406895339e-05,0.000190199352801,0.0017154449597,0.0,0.0
2020/02/28/11:32:48.854690,66,1582911168,854645461,vectornav,1266946386.84,0.0,0.0,0.0,-0.11580915004,-0.368537843227,-9.81195735931,0.00149857474025,0.00106847146526,-0.000136325135827,0.0,0.0
2020/02/28/11:32:48.874712,67,1582911168,874674082,vectornav,1266946386.86,0.0,0.0,0.0,-0.128883197904,-0.372071295977,-9.80050373077,0.000869585608598,0.00194519921206,0.000507201068103,0.0,0.0
2020/02/28/11:32:48.894650,68,1582911168,894577938,vectornav,1266946386.88,0.0,0.0,0.0,-0.156724750996,-0.348565787077,-9.80763721466,0.000568611023482,-0.00120445992798,-0.000410319305956,0.0,0.0
2020/02/28/11:32:48.914673,69,1582911168,914614393,vectornav,1266946386.9,0.0,0.0,0.0,-0.157269641757,-0.348286300898,-9.75180339813,7.25429272279e-05,0.000193822663277,0.000503298826516,0.0,0.0
2020/02/28/11:32:48.934609,70,1582911168,934566725,vectornav,1266946386.92,0.0,0.0,0.0,-0.179090574384,-0.314298123121,-9.73372364044,-0.000204062322155,-0.000761756673455,0.00111030135304,0.0,0.0
2020/02/28/11:32:48.954681,71,1582911168,954631539,vectornav,1266946386.94,0.0,0.0,0.0,-0.156738504767,-0.333062380552,-9.70588302612,-0.00135531881824,-0.00131137203425,0.000558466650546,0.0,0.0
2020/02/28/11:32:48.974660,72,1582911168,974620069,vectornav,1266946386.96,0.0,0.0,0.0,-0.143264293671,-0.321810096502,-9.71140766144,-0.000849761534482,-0.00185589585453,-0.000131544657052,0.0,0.0
2020/02/28/11:32:48.994647,73,1582911168,994567358,vectornav,1266946386.98,0.0,0.0,0.0,-0.104103207588,-0.344298571348,-9.74303150177,-0.000867087161168,-0.000477987341583,-0.000533957034349,0.0,0.0
2020/02/28/11:32:49.014648,74,1582911169,14559974,vectornav,1266946387.0,0.0,0.0,0.0,-0.0878455638885,-0.339209645987,-9.78660964966,-0.000409581232816,-0.00104650901631,0.00127063132823,0.0,0.0
2020/02/28/11:32:49.034641,75,1582911169,34567033,vectornav,1266946387.02,0.0,0.0,0.0,-0.0693629160523,-0.362936764956,-9.776512146,-1.11652188934e-05,0.000567360781133,0.000949786044657,0.0,0.0
2020/02/28/11:32:49.054713,76,1582911169,54615906,vectornav,1266946387.04,0.0,0.0,0.0,-0.0623137652874,-0.333676487207,-9.81913661957,0.000684377911966,-0.000904027372599,0.000176083296537,0.0,0.0
2020/02/28/11:32:49.074637,77,1582911169,74575282,vectornav,1266946387.06,0.0,0.0,0.0,-0.080555036664,-0.338027447462,-9.82320594788,0.000534955179319,0.000604611821473,0.000308502465487,0.0,0.0
2020/02/28/11:32:49.094585,78,1582911169,94501167,vectornav,1266946387.08,0.0,0.0,0.0,-0.105197578669,-0.320616573095,-9.76324462891,0.00224616797641,0.000708654522896,0.000227238982916,0.0,0.0
2020/02/28/11:32:49.114616,79,1582911169,114537656,vectornav,1266946387.1,0.0,0.0,0.0,-0.0934389308095,-0.340950101614,-9.79570960999,0.00181120855268,0.000856356229633,0.000745581462979,0.0,0.0
2020/02/28/11:32:49.134596,80,1582911169,134553266,vectornav,1266946387.12,0.0,0.0,0.0,-0.0881097316742,-0.341393202543,-9.75196647644,0.000253482721746,-6.6056381911e-05,0.000701619312167,0.0,0.0
2020/02/28/11:32:49.154768,81,1582911169,154655880,vectornav,1266946387.14,0.0,0.0,0.0,-0.0953212678432,-0.354388684034,-9.81911754608,0.000680585973896,5.62192872167e-06,0.000103225931525,0.0,0.0
2020/02/28/11:32:49.174624,82,1582911169,174544877,vectornav,1266946387.16,0.0,0.0,0.0,-0.122263282537,-0.369969397783,-9.75628185272,0.0022882213816,-0.000501583795995,-0.000709339976311,0.0,0.0
2020/02/28/11:32:49.194602,83,1582911169,194501727,vectornav,1266946387.18,0.0,0.0,0.0,-0.103959940374,-0.359547317028,-9.79707622528,0.000659710902255,-0.00103135639802,-0.000510403886437,0.0,0.0
2020/02/28/11:32:49.214594,84,1582911169,214550617,vectornav,1266946387.2,0.0,0.0,0.0,-0.123030878603,-0.372334361076,-9.75726222992,-0.000418230338255,-0.00080555351451,-0.00107439421117,0.0,0.0
2020/02/28/11:32:49.234561,85,1582911169,234512477,vectornav,1266946387.22,0.0,0.0,0.0,-0.122879125178,-0.348719120026,-9.74433231354,0.00171133992262,6.60633668303e-05,-0.000555261969566,0.0,0.0
2020/02/28/11:32:49.254594,86,1582911169,254514054,vectornav,1266946387.24,0.0,0.0,0.0,-0.136143431067,-0.340362638235,-9.74036502838,0.000950369983912,0.00112949544564,-0.00060551520437,0.0,0.0
2020/02/28/11:32:49.274592,87,1582911169,274541659,vectornav,1266946387.26,0.0,0.0,0.0,-0.135588631034,-0.342714071274,-9.72873020172,8.70286603458e-05,0.00153400376439,-0.000990834087133,0.0,0.0
2020/02/28/11:32:49.294630,88,1582911169,294559610,vectornav,1266946387.28,0.0,0.0,0.0,-0.144299522042,-0.351371377707,-9.76779937744,0.000780763686635,-0.00104692624882,0.000340735539794,0.0,0.0
2020/02/28/11:32:49.314550,89,1582911169,314506920,vectornav,1266946387.3,0.0,0.0,0.0,-0.147355601192,-0.325587719679,-9.75064182281,-0.0012108841911,0.000476032029837,-0.0012376094237,0.0,0.0
2020/02/28/11:32:49.334548,90,1582911169,334511530,vectornav,1266946387.32,0.0,0.0,0.0,-0.147772014141,-0.34035217762,-9.789894104,0.00033204065403,0.000968614360318,0.000536535866559,0.0,0.0
2020/02/28/11:32:49.354527,91,1582911169,354476428,vectornav,1266946387.34,0.0,0.0,0.0,-0.132797539234,-0.344086408615,-9.78235626221,-0.00127280363813,-0.00101838214323,0.000213333405554,0.0,0.0
2020/02/28/11:32:49.374661,92,1582911169,374556203,vectornav,1266946387.36,0.0,0.0,0.0,-0.124470606446,-0.352454423904,-9.79918670654,-0.000612302334048,-1.03563070297e-06,0.000161200761795,0.0,0.0
2020/02/28/11:32:49.394500,93,1582911169,394467844,vectornav,1266946387.38,0.0,0.0,0.0,-0.158997923136,-0.376058518887,-9.80773735046,-0.000893719610758,-0.00129459192976,0.000781007111073,0.0,0.0
2020/02/28/11:32:49.414501,94,1582911169,414452869,vectornav,1266946387.4,0.0,0.0,0.0,-0.129707038403,-0.325736284256,-9.82116794586,0.000173624197487,0.000117190182209,0.00120341498405,0.0,0.0
2020/02/28/11:32:49.434543,95,1582911169,434498576,vectornav,1266946387.42,0.0,0.0,0.0,-0.144933566451,-0.350300192833,-9.78371238708,-0.000207216420677,0.000151597894728,8.91508534551e-05,0.0,0.0
2020/02/28/11:32:49.454506,96,1582911169,454458489,vectornav,1266946387.44,0.0,0.0,0.0,-0.123529866338,-0.316120445728,-9.75881958008,0.000191085680854,-0.000357563607395,-0.000525529496372,0.0,0.0
2020/02/28/11:32:49.474641,97,1582911169,474531319,vectornav,1266946387.46,0.0,0.0,0.0,-0.0962683111429,-0.335664600134,-9.72821044922,0.000971472472884,9.17003490031e-05,0.000858266837895,0.0,0.0
2020/02/28/11:32:49.494508,98,1582911169,494422485,vectornav,1266946387.48,0.0,0.0,0.0,-0.122471734881,-0.361791670322,-9.71658706665,-0.00205719820224,0.000411288347095,-0.000364727340639,0.0,0.0
2020/02/28/11:32:49.514499,99,1582911169,514452265,vectornav,1266946387.5,0.0,0.0,0.0,-0.1229159832,-0.346186935902,-9.66579627991,-0.00155481207184,-0.00227607460693,-0.00075962767005,0.0,0.0
2020/02/28/11:32:49.534493,100,1582911169,534398767,vectornav,1266946387.52,0.0,0.0,0.0,-0.109803594649,-0.337732315063,-9.73863124847,0.0012850034982,-0.000122487545013,-0.000106032006443,0.0,0.0
2020/02/28/11:32:49.554505,101,1582911169,554429994,vectornav,1266946387.54,0.0,0.0,0.0,-0.0644082948565,-0.325694441795,-9.76504325867,-0.00139117857907,-0.000965887214988,0.000307586975396,0.0,0.0
2020/02/28/11:32:49.574526,102,1582911169,574485881,vectornav,1266946387.56,0.0,0.0,0.0,-0.0675747320056,-0.33795556426,-9.85626125336,-0.00166329229251,-0.000960695091635,-0.000218775123358,0.0,0.0
2020/02/28/11:32:49.594501,103,1582911169,594443991,vectornav,1266946387.58,0.0,0.0,0.0,-0.126357346773,-0.360588461161,-9.8636007309,0.00188838643953,0.000279694795609,0.000200103968382,0.0,0.0
2020/02/28/11:32:49.614563,104,1582911169,614516858,vectornav,1266946387.6,0.0,0.0,0.0,-0.0769214108586,-0.342122107744,-9.82815647125,0.000438684539404,0.0022015075665,-0.00152714364231,0.0,0.0
2020/02/28/11:32:49.634454,105,1582911169,634413572,vectornav,1266946387.62,0.0,0.0,0.0,-0.131051123142,-0.308926224709,-9.76507282257,0.000260710075963,0.000809454824775,-0.000427559018135,0.0,0.0
2020/02/28/11:32:49.654476,106,1582911169,654440153,vectornav,1266946387.64,0.0,0.0,0.0,-0.145403116941,-0.30829513073,-9.72954654694,0.000744118995499,0.00106563209556,0.00057234428823,0.0,0.0
2020/02/28/11:32:49.674513,107,1582911169,674471791,vectornav,1266946387.66,0.0,0.0,0.0,-0.126327216625,-0.357667058706,-9.66112804413,0.000127604289446,-0.000880082603544,0.00152195990086,0.0,0.0
2020/02/28/11:32:49.694472,108,1582911169,694396324,vectornav,1266946387.68,0.0,0.0,0.0,-0.133195817471,-0.32445821166,-9.69246578217,-0.000541010929737,0.000125701073557,0.000896153971553,0.0,0.0
2020/02/28/11:32:49.714443,109,1582911169,714403867,vectornav,1266946387.7,0.0,0.0,0.0,-0.118642829359,-0.375673085451,-9.66720294952,3.29405302182e-05,-0.000772939063609,0.000515008345246,0.0,0.0
2020/02/28/11:32:49.734399,110,1582911169,734358748,vectornav,1266946387.72,0.0,0.0,0.0,-0.133931398392,-0.362390905619,-9.72299575806,0.000105129030999,-0.00120730511844,0.00123764108866,0.0,0.0
2020/02/28/11:32:49.754451,111,1582911169,754380443,vectornav,1266946387.74,0.0,0.0,0.0,-0.144101172686,-0.401643007994,-9.82721042633,0.00128139136359,-0.000668473541737,8.71075317264e-05,0.0,0.0
2020/02/28/11:32:49.774441,112,1582911169,774363958,vectornav,1266946387.76,0.0,0.0,0.0,-0.107490114868,-0.386721968651,-9.77935695648,0.000659715151414,0.000546709634364,4.1164457798e-06,0.0,0.0
2020/02/28/11:32:49.794421,113,1582911169,794333686,vectornav,1266946387.78,0.0,0.0,0.0,-0.145211979747,-0.358415037394,-9.84837245941,0.00082204391947,0.00120761431754,-0.000733764842153,0.0,0.0
2020/02/28/11:32:49.814430,114,1582911169,814353017,vectornav,1266946387.8,0.0,0.0,0.0,-0.107825867832,-0.340645968914,-9.82654094696,0.000697759038303,0.00112054334022,-0.000668263062835,0.0,0.0
2020/02/28/11:32:49.834360,115,1582911169,834324009,vectornav,1266946387.82,0.0,0.0,0.0,-0.140748649836,-0.321210920811,-9.77794551849,-0.00112639414147,0.0026551312767,-9.93870198727e-05,0.0,0.0
2020/02/28/11:32:49.854398,116,1582911169,854317095,vectornav,1266946387.84,0.0,0.0,0.0,-0.151416137815,-0.301631659269,-9.73365688324,-0.00148852949496,0.00200339080766,6.39166682959e-05,0.0,0.0
2020/02/28/11:32:49.874387,117,1582911169,874342476,vectornav,1266946387.86,0.0,0.0,0.0,-0.169873058796,-0.340455830097,-9.67592334747,0.000348681060132,-9.49618406594e-05,0.00121264532208,0.0,0.0
2020/02/28/11:32:49.894394,118,1582911169,894315763,vectornav,1266946387.88,0.0,0.0,0.0,-0.148988038301,-0.357817471027,-9.71327590942,-5.03871706314e-05,-0.00215316750109,-0.000253494828939,0.0,0.0
2020/02/28/11:32:49.914446,119,1582911169,914323408,vectornav,1266946387.9,0.0,0.0,0.0,-0.145716995001,-0.354637145996,-9.72203350067,0.000158226932399,-0.000869547016919,0.000768109224737,0.0,0.0
2020/02/28/11:32:49.934354,120,1582911169,934322885,vectornav,1266946387.92,0.0,0.0,0.0,-0.141220703721,-0.323258012533,-9.75427818298,0.00042785925325,-0.000924567691982,0.00212430395186,0.0,0.0
2020/02/28/11:32:49.954337,121,1582911169,954287935,vectornav,1266946387.94,0.0,0.0,0.0,-0.115979239345,-0.345933943987,-9.773229599,0.00237837876193,-0.00193535396829,0.000236818566918,0.0,0.0
2020/02/28/11:32:49.974269,122,1582911169,974240456,vectornav,1266946387.96,0.0,0.0,0.0,-0.107134521008,-0.367054969072,-9.79489803314,0.000721298914868,-0.000611970201135,0.000573975965381,0.0,0.0
2020/02/28/11:32:49.994278,123,1582911169,994232491,vectornav,1266946387.98,0.0,0.0,0.0,-0.104813173413,-0.350000411272,-9.78886032104,0.00099887419492,0.000709797721356,0.000424437224865,0.0,0.0
2020/02/28/11:32:50.014349,124,1582911170,14305041,vectornav,1266946388.0,0.0,0.0,0.0,-0.119511604309,-0.36555826664,-9.77228736877,-0.000478221278172,0.000510002952069,0.000677408650517,0.0,0.0
2020/02/28/11:32:50.034292,125,1582911170,34244006,vectornav,1266946388.02,0.0,0.0,0.0,-0.109185546637,-0.370638638735,-9.77761077881,-0.000827147741802,0.00218121754006,-0.00149464607239,0.0,0.0
2020/02/28/11:32:50.054343,126,1582911170,54258808,vectornav,1266946388.04,0.0,0.0,0.0,-0.148472547531,-0.380444347858,-9.76836967468,-0.000147133134305,0.000752687919885,0.000948129221797,0.0,0.0
2020/02/28/11:32:50.074265,127,1582911170,74219912,vectornav,1266946388.06,0.0,0.0,0.0,-0.118838101625,-0.36470296979,-9.74747467041,-0.00111443130299,-0.000967924017459,-0.000655583105981,0.0,0.0
2020/02/28/11:32:50.094316,128,1582911170,94252078,vectornav,1266946388.08,0.0,0.0,0.0,-0.129175931215,-0.366464287043,-9.74729824066,-0.000898881349713,-0.00145469419658,-0.000129602849483,0.0,0.0
2020/02/28/11:32:50.114265,129,1582911170,114208303,vectornav,1266946388.1,0.0,0.0,0.0,-0.122078582644,-0.343244761229,-9.74323654175,-0.00140524737071,0.000807865988463,-0.00040321983397,0.0,0.0
2020/02/28/11:32:50.134356,130,1582911170,134259383,vectornav,1266946388.12,0.0,0.0,0.0,-0.0825610905886,-0.335745066404,-9.7636756897,-0.000143898651004,-0.00153053505346,0.000927185639739,0.0,0.0
2020/02/28/11:32:50.154353,131,1582911170,154210174,vectornav,1266946388.14,0.0,0.0,0.0,-0.096341483295,-0.320537507534,-9.76155948639,-0.0013858655002,-0.00092779006809,0.000107842497528,0.0,0.0
2020/02/28/11:32:50.174270,132,1582911170,174194307,vectornav,1266946388.16,0.0,0.0,0.0,-0.100404813886,-0.319775700569,-9.77007484436,-0.00102883379441,0.000292644836009,0.00154477916658,0.0,0.0
2020/02/28/11:32:50.194212,133,1582911170,194178389,vectornav,1266946388.18,0.0,0.0,0.0,-0.0803968831897,-0.330047547817,-9.77319049835,0.000167266698554,-0.00129821943119,0.00126671139151,0.0,0.0
2020/02/28/11:32:50.214249,134,1582911170,214194189,vectornav,1266946388.2,0.0,0.0,0.0,-0.109923414886,-0.339570522308,-9.73391914368,-0.00082680163905,0.00142245646566,0.0021527018398,0.0,0.0
2020/02/28/11:32:50.234248,135,1582911170,234177250,vectornav,1266946388.22,0.0,0.0,0.0,-0.110433854163,-0.351983934641,-9.76788902283,0.000203860574402,3.00295650959e-05,0.000114135444164,0.0,0.0
2020/02/28/11:32:50.254324,136,1582911170,254236979,vectornav,1266946388.24,0.0,0.0,0.0,-0.0956466272473,-0.355930447578,-9.80129337311,0.0010174177587,-0.000295774079859,0.0014662630856,0.0,0.0
2020/02/28/11:32:50.274258,137,1582911170,274195039,vectornav,1266946388.26,0.0,0.0,0.0,-0.112047500908,-0.363113462925,-9.77617835999,0.000543516420294,-6.71627931297e-05,-0.000163565389812,0.0,0.0
2020/02/28/11:32:50.294227,138,1582911170,294165542,vectornav,1266946388.28,0.0,0.0,0.0,-0.136214077473,-0.347555547953,-9.82677173615,-0.000160454073921,-0.000465331133455,-0.00013666972518,0.0,0.0
2020/02/28/11:32:50.314233,139,1582911170,314172799,vectornav,1266946388.3,0.0,0.0,0.0,-0.13217651844,-0.316180050373,-9.80010128021,0.00353557267226,-0.000415146350861,-0.00123267713934,0.0,0.0
2020/02/28/11:32:50.334200,140,1582911170,334170203,vectornav,1266946388.32,0.0,0.0,0.0,-0.100045591593,-0.347469389439,-9.73270702362,-0.00231743208133,-0.000159851741046,-0.000510890036821,0.0,0.0
2020/02/28/11:32:50.354205,141,1582911170,354133241,vectornav,1266946388.34,0.0,0.0,0.0,-0.041814006865,-0.301515549421,-9.84156036377,0.00193819915876,0.0018275086768,-0.000771480612457,0.0,0.0
2020/02/28/11:32:50.374277,142,1582911170,374222674,vectornav,1266946388.36,0.0,0.0,0.0,0.198872804642,-0.359606474638,-9.73074054718,0.004057766404,-0.00175747042522,-0.000451008789241,0.0,0.0
2020/02/28/11:32:50.394172,143,1582911170,394110863,vectornav,1266946388.38,0.0,0.0,0.0,0.244759619236,-0.268207192421,-9.91657161713,0.00109060597606,0.00306043098681,-0.000136356800795,0.0,0.0
2020/02/28/11:32:50.414224,144,1582911170,414120837,vectornav,1266946388.4,0.0,0.0,0.0,0.272660553455,-0.375077605247,-9.82749271393,-0.000532861275133,0.00327197765,-0.000816978514194,0.0,0.0
2020/02/28/11:32:50.434233,145,1582911170,434188243,vectornav,1266946388.42,0.0,0.0,0.0,0.155346497893,-0.30961188674,-9.64123821259,0.000811103032902,0.00479708286002,-0.000353218056262,0.0,0.0
2020/02/28/11:32:50.454202,146,1582911170,454167202,vectornav,1266946388.44,0.0,0.0,0.0,0.0387568548322,-0.353949934244,-9.61147403717,0.000663011858705,0.00222650473006,-0.00114371068776,0.0,0.0
2020/02/28/11:32:50.474157,147,1582911170,474118919,vectornav,1266946388.46,0.0,0.0,0.0,-0.105430491269,-0.364223331213,-9.54863071442,0.00428077159449,-4.47034835815e-06,-0.000341859646142,0.0,0.0
2020/02/28/11:32:50.494208,148,1582911170,494153393,vectornav,1266946388.48,0.0,0.0,0.0,-0.219382315874,-0.351732999086,-9.64565563202,0.000134052650537,-0.0057249343954,0.000432184897363,0.0,0.0
2020/02/28/11:32:50.514175,149,1582911170,514113128,vectornav,1266946388.5,0.0,0.0,0.0,-0.144490838051,-0.333206623793,-9.89352226257,0.00139571609907,-0.00454432982951,0.000277056358755,0.0,0.0
2020/02/28/11:32:50.534185,150,1582911170,534093231,vectornav,1266946388.52,0.0,0.0,0.0,-0.0085597448051,-0.346331566572,-9.9282617569,0.00466769887134,-0.00400432758033,0.00114413350821,0.0,0.0
2020/02/28/11:32:50.554205,151,1582911170,554162184,vectornav,1266946388.54,0.0,0.0,0.0,0.105326116085,-0.306907743216,-10.0065412521,-0.000765062402934,-0.00262297876179,0.00113887619227,0.0,0.0
2020/02/28/11:32:50.574233,152,1582911170,574179646,vectornav,1266946388.56,0.0,0.0,0.0,0.210767105222,-0.368254840374,-10.0177726746,-0.00171185610816,0.00142573006451,0.000982571393251,0.0,0.0
2020/02/28/11:32:50.594161,153,1582911170,594094918,vectornav,1266946388.58,0.0,0.0,0.0,0.291146785021,-0.349137544632,-9.91358566284,-0.000841529865284,0.00552350422367,0.00124080944806,0.0,0.0
2020/02/28/11:32:50.614173,154,1582911170,614069104,vectornav,1266946388.6,0.0,0.0,0.0,0.234426677227,-0.382146537304,-9.70710754395,-0.0041027367115,0.00636993721128,-0.000101666897535,0.0,0.0
2020/02/28/11:32:50.634159,155,1582911170,634092717,vectornav,1266946388.62,0.0,0.0,0.0,0.15986391902,-0.396935522556,-9.60048294067,-0.00487405154854,0.00620782840997,-0.000605331733823,0.0,0.0
2020/02/28/11:32:50.654099,156,1582911170,654051591,vectornav,1266946388.64,0.0,0.0,0.0,0.0378630161285,-0.373427093029,-9.51857566833,0.00129792653024,0.00292857643217,-0.000342661514878,0.0,0.0
2020/02/28/11:32:50.674109,157,1582911170,674075482,vectornav,1266946388.66,0.0,0.0,0.0,-0.0331191048026,-0.352786779404,-9.51296615601,0.000240938097704,-0.000873897224665,0.000517035834491,0.0,0.0
2020/02/28/11:32:50.694264,158,1582911170,694115533,vectornav,1266946388.68,0.0,0.0,0.0,-0.0270618405193,-0.32718026638,-9.65809249878,0.000796731270384,-0.00397345097736,-0.0013942765072,0.0,0.0
2020/02/28/11:32:50.714093,159,1582911170,714034353,vectornav,1266946388.7,0.0,0.0,0.0,0.0190006271005,-0.303520560265,-9.84272575378,0.00317898765206,-0.00557435909286,-0.00163515936583,0.0,0.0
2020/02/28/11:32:50.734072,160,1582911170,734014002,vectornav,1266946388.72,0.0,0.0,0.0,0.154252722859,-0.29335168004,-9.86073875427,0.000227545446251,-0.00397389801219,-0.000148990191519,0.0,0.0
2020/02/28/11:32:50.754058,161,1582911170,754017659,vectornav,1266946388.74,0.0,0.0,0.0,0.246747627854,-0.290024012327,-10.0174055099,-0.00371543131769,-0.00189969874918,-0.000989000312984,0.0,0.0
2020/02/28/11:32:50.774274,162,1582911170,774225363,vectornav,1266946388.76,0.0,0.0,0.0,0.306214600801,-0.308483242989,-9.98389530182,-0.00296568917111,0.00153097417206,-0.00107693579048,0.0,0.0
2020/02/28/11:32:50.794062,163,1582911170,794021379,vectornav,1266946388.78,0.0,0.0,0.0,0.259584218264,-0.333202004433,-9.90647983551,-0.00413291528821,0.00497624231502,0.000715178437531,0.0,0.0
2020/02/28/11:32:50.814054,164,1582911170,814009639,vectornav,1266946388.8,0.0,0.0,0.0,0.216213956475,-0.379213601351,-9.77628993988,-0.00409445958212,0.00521301012486,-0.00044668186456,0.0,0.0
2020/02/28/11:32:50.834061,165,1582911170,834022285,vectornav,1266946388.82,0.0,0.0,0.0,0.163271322846,-0.382253110409,-9.70841693878,-0.000551665900275,0.00398045824841,0.00111481267959,0.0,0.0
2020/02/28/11:32:50.854051,166,1582911170,854007140,vectornav,1266946388.84,0.0,0.0,0.0,0.113570190966,-0.389127731323,-9.59720897675,0.0041960272938,0.00289265066385,-0.000261404551566,0.0,0.0
2020/02/28/11:32:50.874084,167,1582911170,874003479,vectornav,1266946388.86,0.0,0.0,0.0,0.0725044086576,-0.361506223679,-9.64011764526,0.00159659050405,3.62838618457e-05,-8.42474400997e-06,0.0,0.0
2020/02/28/11:32:50.894142,168,1582911170,894072324,vectornav,1266946388.88,0.0,0.0,0.0,0.1734931916,-0.335259348154,-9.66937351227,0.00341366417706,-0.00169367576018,-2.36742198467e-06,0.0,0.0
2020/02/28/11:32:50.914041,169,1582911170,914000896,vectornav,1266946388.9,0.0,0.0,0.0,0.222827836871,-0.29657331109,-9.80282688141,0.00235787103884,-0.00220316788182,0.000718930736184,0.0,0.0
2020/02/28/11:32:50.934041,170,1582911170,933988547,vectornav,1266946388.92,0.0,0.0,0.0,0.311394155025,-0.297867745161,-9.86470222473,-0.000826014438644,-0.00145540479571,-0.000652592629194,0.0,0.0
2020/02/28/11:32:50.954066,171,1582911170,953960581,vectornav,1266946388.94,0.0,0.0,0.0,0.337104737759,-0.305730700493,-9.85997867584,-0.00156860298011,0.00143182091415,0.000436949543655,0.0,0.0
2020/02/28/11:32:50.974032,172,1582911170,973966891,vectornav,1266946388.96,0.0,0.0,0.0,0.298628568649,-0.329390883446,-9.88323402405,-0.00300629553385,0.000138068571687,-0.001070600003,0.0,0.0
2020/02/28/11:32:50.994120,173,1582911170,994058304,vectornav,1266946388.98,0.0,0.0,0.0,0.264677166939,-0.362948179245,-9.80512428284,-0.00309581356123,0.00152204022743,0.000425938516855,0.0,0.0
2020/02/28/11:32:51.014087,174,1582911171,13965876,vectornav,1266946389.0,0.0,0.0,0.0,0.186096414924,-0.377880632877,-9.74709224701,-0.00408910075203,0.00140340439975,0.00011885445565,0.0,0.0
2020/02/28/11:32:51.034023,175,1582911171,33934265,vectornav,1266946389.02,0.0,0.0,0.0,0.168901786208,-0.419062763453,-9.69622612,0.000602281244937,0.000368063338101,-1.90222635865e-05,0.0,0.0
2020/02/28/11:32:51.054087,176,1582911171,53958015,vectornav,1266946389.04,0.0,0.0,0.0,0.183966249228,-0.359037965536,-9.64593601227,0.00112313893624,-7.65733420849e-05,-0.000953180715442,0.0,0.0
2020/02/28/11:32:51.074022,177,1582911171,73983430,vectornav,1266946389.06,0.0,0.0,0.0,0.200711846352,-0.363145262003,-9.70156288147,-0.00049135950394,-0.000864703673869,-0.00169613584876,0.0,0.0
2020/02/28/11:32:51.094055,178,1582911171,94012259,vectornav,1266946389.08,0.0,0.0,0.0,0.255075961351,-0.323363244534,-9.74501228333,0.000579180254135,-0.00110824918374,-0.000877431593835,0.0,0.0
2020/02/28/11:32:51.113972,179,1582911171,113936716,vectornav,1266946389.1,0.0,0.0,0.0,0.325770676136,-0.325239926577,-9.74985790253,0.000448756734841,-0.00156400725245,-0.000308418646455,0.0,0.0
2020/02/28/11:32:51.133995,180,1582911171,133939635,vectornav,1266946389.12,0.0,0.0,0.0,0.351020872593,-0.329391539097,-9.83155727386,-0.00227861572057,-0.000419908668846,0.00042777787894,0.0,0.0
2020/02/28/11:32:51.153968,181,1582911171,153927400,vectornav,1266946389.14,0.0,0.0,0.0,0.313422292471,-0.346223086119,-9.83901786804,-0.0019659565296,0.000931231305003,0.000588172115386,0.0,0.0
2020/02/28/11:32:51.173990,182,1582911171,173947081,vectornav,1266946389.16,0.0,0.0,0.0,0.267609387636,-0.338811337948,-9.825299263,-0.00273117353208,0.00317127374001,-0.00106430333108,0.0,0.0
2020/02/28/11:32:51.193992,183,1582911171,193929889,vectornav,1266946389.18,0.0,0.0,0.0,0.239826470613,-0.345621019602,-9.77182388306,-0.00460076937452,0.00291111413389,0.000145484693348,0.0,0.0
2020/02/28/11:32:51.213945,184,1582911171,213899698,vectornav,1266946389.2,0.0,0.0,0.0,0.214560687542,-0.35833504796,-9.7766752243,-0.00149537052494,0.0013420144096,-0.00110395532101,0.0,0.0
2020/02/28/11:32:51.233917,185,1582911171,233876192,vectornav,1266946389.22,0.0,0.0,0.0,0.222505688667,-0.307487666607,-9.77300739288,-0.00173641531728,0.00138094066642,-0.000469750724733,0.0,0.0
2020/02/28/11:32:51.253910,186,1582911171,253873531,vectornav,1266946389.24,0.0,0.0,0.0,0.237414911389,-0.342882663012,-9.74890995026,-0.00380242802203,0.00107003841549,-0.000520201399922,0.0,0.0
2020/02/28/11:32:51.273912,187,1582911171,273848300,vectornav,1266946389.26,0.0,0.0,0.0,0.321751832962,-0.330187708139,-9.7344789505,-0.00494503835216,0.000896458514035,-0.000550653785467,0.0,0.0
2020/02/28/11:32:51.293889,188,1582911171,293844170,vectornav,1266946389.28,0.0,0.0,0.0,0.313909053802,-0.337161868811,-9.74532699585,-0.000503925257362,-0.000320476479828,-0.00106984656304,0.0,0.0
2020/02/28/11:32:51.314046,189,1582911171,313960793,vectornav,1266946389.3,0.0,0.0,0.0,0.356424659491,-0.332723528147,-9.70891475677,-0.00346054392867,-0.000180310569704,-0.00022002030164,0.0,0.0
2020/02/28/11:32:51.333898,190,1582911171,333857926,vectornav,1266946389.32,0.0,0.0,0.0,0.361699044704,-0.314450889826,-9.80664730072,-0.00230008875951,-0.0012325104326,0.0013115471229,0.0,0.0
2020/02/28/11:32:51.353978,191,1582911171,353910271,vectornav,1266946389.34,0.0,0.0,0.0,0.330398201942,-0.306679487228,-9.73857784271,0.00186479545664,-0.000581342261285,0.000939447432756,0.0,0.0
2020/02/28/11:32:51.373924,192,1582911171,373893868,vectornav,1266946389.36,0.0,0.0,0.0,0.287356227636,-0.25717869401,-9.82566738129,-0.00149407959543,0.000248224940151,-1.29491090775e-05,0.0,0.0
2020/02/28/11:32:51.393913,193,1582911171,393871600,vectornav,1266946389.38,0.0,0.0,0.0,0.282810330391,-0.327659010887,-9.87151908875,-0.00124365079682,-0.000787843484432,-0.000821946188807,0.0,0.0
2020/02/28/11:32:51.413874,194,1582911171,413828036,vectornav,1266946389.4,0.0,0.0,0.0,0.266653597355,-0.278884202242,-9.82103157043,-0.00254864897579,0.00105070509017,-0.000409317202866,0.0,0.0
2020/02/28/11:32:51.433868,195,1582911171,433808956,vectornav,1266946389.42,0.0,0.0,0.0,0.307556211948,-0.309565395117,-9.78067302704,0.000726515427232,-0.000464791432023,-0.00090398080647,0.0,0.0
2020/02/28/11:32:51.453872,196,1582911171,453821262,vectornav,1266946389.44,0.0,0.0,0.0,0.345140844584,-0.297558397055,-9.79613685608,-0.00141235697083,0.00017096940428,0.00114901084453,0.0,0.0
2020/02/28/11:32:51.473878,197,1582911171,473800354,vectornav,1266946389.46,0.0,0.0,0.0,0.350909858942,-0.346597343683,-9.73526382446,-0.000887369737029,0.000362788327038,0.00080350972712,0.0,0.0
2020/02/28/11:32:51.493907,198,1582911171,493763229,vectornav,1266946389.48,0.0,0.0,0.0,0.365291237831,-0.343234270811,-9.71454048157,-0.00105378765147,0.00226526381448,-0.000421531498432,0.0,0.0
2020/02/28/11:32:51.513801,199,1582911171,513758725,vectornav,1266946389.5,0.0,0.0,0.0,0.389269560575,-0.343136638403,-9.65820217133,-0.000258386193309,-0.000121331308037,-0.000475423410535,0.0,0.0
2020/02/28/11:32:51.533973,200,1582911171,533871460,vectornav,1266946389.52,0.0,0.0,0.0,0.375059783459,-0.3784288764,-9.71634864807,0.00319246505387,-0.00022903457284,0.000795484520495,0.0,0.0
2020/02/28/11:32:51.553800,201,1582911171,553753940,vectornav,1266946389.54,0.0,0.0,0.0,0.332600623369,-0.387342602015,-9.77097511292,0.00454407325014,-0.00048626633361,-0.000939711928368,0.0,0.0
2020/02/28/11:32:51.573797,202,1582911171,573752033,vectornav,1266946389.56,0.0,0.0,0.0,0.337081640959,-0.323447167873,-9.84605312347,0.00435042660683,0.00047249160707,-0.000503229908645,0.0,0.0
2020/02/28/11:32:51.594788,203,1582911171,594750755,vectornav,1266946389.58,0.0,0.0,0.0,0.326066195965,-0.275501310825,-9.87095451355,0.0041328985244,-7.87982717156e-05,0.000916275195777,0.0,0.0
2020/02/28/11:32:51.613818,204,1582911171,613748821,vectornav,1266946389.6,0.0,0.0,0.0,0.364451676607,-0.258094668388,-9.82279396057,0.00374682247639,0.000358522403985,0.000669976696372,0.0,0.0
2020/02/28/11:32:51.634752,205,1582911171,634693413,vectornav,1266946389.62,0.0,0.0,0.0,0.41129758954,-0.29630613327,-9.85123634338,0.00128956302069,0.00202667526901,0.000861360691488,0.0,0.0
2020/02/28/11:32:51.654769,206,1582911171,654716416,vectornav,1266946389.64,0.0,0.0,0.0,0.408890038729,-0.361266791821,-9.82046031952,-0.00240324088372,0.00249334727414,0.00144616700709,0.0,0.0
2020/02/28/11:32:51.674693,207,1582911171,674661788,vectornav,1266946389.66,0.0,0.0,0.0,0.410957574844,-0.410995185375,-9.78671455383,0.00116278650239,0.00154570234008,-0.000524634495378,0.0,0.0
2020/02/28/11:32:51.694950,208,1582911171,694836409,vectornav,1266946389.68,0.0,0.0,0.0,0.428842872381,-0.44273647666,-9.74925804138,0.00465484615415,0.00258808536455,-0.000987869687378,0.0,0.0
2020/02/28/11:32:51.714748,209,1582911171,714697303,vectornav,1266946389.7,0.0,0.0,0.0,0.412049680948,-0.379551261663,-9.7234172821,0.0034226377029,0.00211696815677,-0.000895735807717,0.0,0.0
2020/02/28/11:32:51.734787,210,1582911171,734699743,vectornav,1266946389.72,0.0,0.0,0.0,0.353337436914,-0.347689956427,-9.83860969543,0.00407944014296,0.00115017034113,0.000224970281124,0.0,0.0
2020/02/28/11:32:51.754745,211,1582911171,754704935,vectornav,1266946389.74,0.0,0.0,0.0,0.44200566411,-0.237186044455,-9.76679611206,0.0109719252214,0.000714086927474,-0.00191040616482,0.0,0.0
2020/02/28/11:32:51.774723,212,1582911171,774658138,vectornav,1266946389.76,0.0,0.0,0.0,0.425198793411,-0.325848281384,-9.60768127441,0.00153793697245,0.000248226802796,0.000664392486215,0.0,0.0
2020/02/28/11:32:51.794728,213,1582911171,794622435,vectornav,1266946389.78,0.0,0.0,0.0,0.427705943584,-0.300649702549,-9.8759431839,-0.00188101676758,0.00101918331347,-0.000338717363775,0.0,0.0
2020/02/28/11:32:51.814723,214,1582911171,814658313,vectornav,1266946389.8,0.0,0.0,0.0,0.467619001865,-0.292798310518,-9.78855705261,0.00936877541244,0.00195132265799,-0.0016848789528,0.0,0.0
2020/02/28/11:32:51.834675,215,1582911171,834636777,vectornav,1266946389.82,0.0,0.0,0.0,0.532910108566,-0.285429179668,-9.66202163696,0.0055044661276,0.00284199160524,-0.000625721178949,0.0,0.0
2020/02/28/11:32:51.854696,216,1582911171,854661345,vectornav,1266946389.84,0.0,0.0,0.0,0.560193777084,-0.398161441088,-9.84910774231,-0.00276285409927,0.00135202612728,-0.000695842318237,0.0,0.0
2020/02/28/11:32:51.874676,217,1582911171,874640371,vectornav,1266946389.86,0.0,0.0,0.0,0.555848479271,-0.331417292356,-9.92907524109,0.00480386056006,0.00472001172602,8.40742141008e-05,0.0,0.0
2020/02/28/11:32:51.894641,218,1582911171,894583404,vectornav,1266946389.88,0.0,0.0,0.0,0.594825387001,-0.390237033367,-9.77468109131,0.00772520853207,0.0019651777111,-0.000469267368317,0.0,0.0
2020/02/28/11:32:51.914655,219,1582911171,914590598,vectornav,1266946389.9,0.0,0.0,0.0,0.593075871468,-0.409258306026,-9.79748916626,0.00674767559394,0.00639260094613,0.000209057703614,0.0,0.0
2020/02/28/11:32:51.934661,220,1582911171,934614156,vectornav,1266946389.92,0.0,0.0,0.0,0.649977087975,-0.38574936986,-9.81623840332,0.00646851304919,0.0064467843622,-0.000447215512395,0.0,0.0
2020/02/28/11:32:51.954636,221,1582911171,954591887,vectornav,1266946389.94,0.0,0.0,0.0,0.556148767471,-0.328671276569,-9.76599121094,0.0088062370196,0.00714611448348,0.000227214768529,0.0,0.0
2020/02/28/11:32:51.974685,222,1582911171,974604547,vectornav,1266946389.96,0.0,0.0,0.0,0.577263832092,-0.342219620943,-9.69735336304,0.0103489113972,0.00301428791136,-0.000974148511887,0.0,0.0
2020/02/28/11:32:51.994759,223,1582911171,994666715,vectornav,1266946389.98,0.0,0.0,0.0,0.581169128418,-0.250119775534,-9.68643093109,0.0110159087926,0.00685938773677,-0.000894023105502,0.0,0.0
2020/02/28/11:32:52.014672,224,1582911172,14562849,vectornav,1266946390.0,0.0,0.0,0.0,0.560960531235,-0.260406821966,-9.6936750412,0.00396663090214,0.00199476187117,-0.00132467597723,0.0,0.0
2020/02/28/11:32:52.034664,225,1582911172,34606529,vectornav,1266946390.02,0.0,0.0,0.0,0.55539637804,-0.424959272146,-9.75624084473,0.00687488354743,-0.000596033409238,-0.00152063556015,0.0,0.0
2020/02/28/11:32:52.054632,226,1582911172,54581787,vectornav,1266946390.04,0.0,0.0,0.0,0.643563807011,-0.283762484789,-9.78794574738,0.00862790457904,0.00180151150562,-0.00161120202392,0.0,0.0
2020/02/28/11:32:52.074614,227,1582911172,74550239,vectornav,1266946390.06,0.0,0.0,0.0,0.65192425251,-0.426127493382,-9.64972400665,-0.00149738229811,-4.80189919472e-06,-0.00208599399775,0.0,0.0
2020/02/28/11:32:52.094646,228,1582911172,94599730,vectornav,1266946390.08,0.0,0.0,0.0,0.61053442955,-0.358508378267,-9.90862751007,0.00171251478605,0.000143980141729,-0.00217528268695,0.0,0.0
2020/02/28/11:32:52.114625,229,1582911172,114573390,vectornav,1266946390.1,0.0,0.0,0.0,0.694126367569,-0.4893001616,-9.7081861496,0.00908423401415,0.00207172404043,-0.00119515974075,0.0,0.0
2020/02/28/11:32:52.134614,230,1582911172,134577810,vectornav,1266946390.12,0.0,0.0,0.0,0.696486413479,-0.387872308493,-9.62766551971,-0.00194559223019,0.00340173579752,-0.00116570014507,0.0,0.0
2020/02/28/11:32:52.154553,231,1582911172,154503392,vectornav,1266946390.14,0.0,0.0,0.0,0.657878398895,-0.461975932121,-9.82792568207,0.0006023941678,-0.000241948757321,-0.00180128403008,0.0,0.0
2020/02/28/11:32:52.174643,232,1582911172,174604630,vectornav,1266946390.16,0.0,0.0,0.0,0.618962407112,-0.205901578069,-9.79010295868,0.0160160474479,0.00200582575053,-0.00166444666684,0.0,0.0
2020/02/28/11:32:52.194573,233,1582911172,194518454,vectornav,1266946390.18,0.0,0.0,0.0,0.682132720947,-0.293868869543,-9.43238162994,0.00693657388911,0.000298454426229,0.000227537937462,0.0,0.0
2020/02/28/11:32:52.214527,234,1582911172,214493843,vectornav,1266946390.2,0.0,0.0,0.0,0.65048789978,-0.381433308125,-9.80155467987,-0.0142309255898,0.00202587898821,-7.46175646782e-06,0.0,0.0
2020/02/28/11:32:52.234571,235,1582911172,234495228,vectornav,1266946390.22,0.0,0.0,0.0,0.638122916222,-0.36715722084,-9.88669681549,0.00733170798048,-0.00332156801596,-0.00190473906696,0.0,0.0
2020/02/28/11:32:52.254588,236,1582911172,254555180,vectornav,1266946390.24,0.0,0.0,0.0,0.790593028069,-0.373711764812,-9.64859294891,-0.000376189826056,0.000684657134116,-0.000636898912489,0.0,0.0
2020/02/28/11:32:52.274509,237,1582911172,274463197,vectornav,1266946390.26,0.0,0.0,0.0,0.625841617584,-0.45137488842,-9.73822116852,-0.0144677460194,0.00475546717644,-0.00155243836343,0.0,0.0
2020/02/28/11:32:52.294529,238,1582911172,294454957,vectornav,1266946390.28,0.0,0.0,0.0,0.70617723465,-0.430621087551,-9.93813610077,-0.012373007834,-0.00245062587783,-0.00127167068422,0.0,0.0
2020/02/28/11:32:52.314525,239,1582911172,314477361,vectornav,1266946390.3,0.0,0.0,0.0,0.748514294624,-0.524554252625,-9.66296672821,-0.00100901303813,0.00311076105572,-0.000897482037544,0.0,0.0
2020/02/28/11:32:52.334537,240,1582911172,334463745,vectornav,1266946390.32,0.0,0.0,0.0,0.69577640295,-0.492558300495,-9.64446735382,-0.0228914879262,0.00103228306398,-0.00103066582233,0.0,0.0
2020/02/28/11:32:52.354559,241,1582911172,354486587,vectornav,1266946390.34,0.0,0.0,0.0,0.749324798584,-0.545588970184,-10.0367231369,-0.0216749664396,0.000654653180391,-0.0012123240158,0.0,0.0
2020/02/28/11:32:52.374565,242,1582911172,374526102,vectornav,1266946390.36,0.0,0.0,0.0,0.779169261456,-0.395470708609,-9.85378742218,0.00495722936466,-0.00367710832506,-0.00120867136866,0.0,0.0
2020/02/28/11:32:52.394622,243,1582911172,394557574,vectornav,1266946390.38,0.0,0.0,0.0,0.804503142834,-0.369324088097,-9.53478908539,-0.0169966258109,0.00246548233554,-0.00132077559829,0.0,0.0
2020/02/28/11:32:52.414557,244,1582911172,414484993,vectornav,1266946390.4,0.0,0.0,0.0,0.734909832478,-0.355295300484,-9.96948051453,-0.0307351388037,0.00363586447202,-0.000630118884146,0.0,0.0
2020/02/28/11:32:52.434557,245,1582911172,434466151,vectornav,1266946390.42,0.0,0.0,0.0,0.734601676464,-0.301003098488,-9.91573429108,-0.00703790737316,-0.00347973778844,-0.00187739357352,0.0,0.0
2020/02/28/11:32:52.454537,246,1582911172,454457536,vectornav,1266946390.44,0.0,0.0,0.0,0.634407818317,-0.440771400928,-9.49995326996,-0.00313493283466,0.00304672494531,-0.000235803425312,0.0,0.0
2020/02/28/11:32:52.474427,247,1582911172,474388644,vectornav,1266946390.46,0.0,0.0,0.0,0.803162336349,-0.489468365908,-9.87892055511,-0.0470676198602,0.00278467638418,-0.000700457021594,0.0,0.0
2020/02/28/11:32:52.494507,248,1582911172,494471045,vectornav,1266946390.48,0.0,0.0,0.0,0.664590001106,-0.295223265886,-10.1788711548,-0.00800718273968,-0.00203404761851,-0.00182262714952,0.0,0.0
2020/02/28/11:32:52.514471,249,1582911172,514382898,vectornav,1266946390.5,0.0,0.0,0.0,0.701939404011,-0.27454534173,-9.71409511566,0.0014815524919,0.00104793300852,-0.00143102370203,0.0,0.0
2020/02/28/11:32:52.534470,250,1582911172,534372259,vectornav,1266946390.52,0.0,0.0,0.0,0.730492293835,-0.309708356857,-9.61444187164,-0.0296999923885,0.00356225366704,-0.00135949067771,0.0,0.0
2020/02/28/11:32:52.554470,251,1582911172,554363765,vectornav,1266946390.54,0.0,0.0,0.0,0.636797189713,-0.258914917707,-10.004281044,-0.0171480197459,-7.86823220551e-05,-0.00135157443583,0.0,0.0
2020/02/28/11:32:52.574387,252,1582911172,574353834,vectornav,1266946390.56,0.0,0.0,0.0,0.736585497856,-0.292579978704,-9.66783905029,-0.00341154914349,0.0015782203991,-0.00200361199677,0.0,0.0
2020/02/28/11:32:52.594457,253,1582911172,594398347,vectornav,1266946390.58,0.0,0.0,0.0,0.705130517483,-0.166561335325,-9.71727085114,-0.0229156762362,0.00237076357007,-0.000204007141292,0.0,0.0
2020/02/28/11:32:52.614444,254,1582911172,614367017,vectornav,1266946390.6,0.0,0.0,0.0,0.767320632935,-0.365303009748,-9.89922809601,-0.0138135384768,-0.00500677619129,-0.000362219288945,0.0,0.0
2020/02/28/11:32:52.634407,255,1582911172,634375657,vectornav,1266946390.62,0.0,0.0,0.0,0.830282330513,-0.276068091393,-9.92454147339,-0.0147325573489,0.00180596718565,0.000809645280242,0.0,0.0
2020/02/28/11:32:52.654452,256,1582911172,654361742,vectornav,1266946390.64,0.0,0.0,0.0,0.787134051323,-0.037528116256,-9.58258152008,0.00496929418296,0.000247742515057,-3.08919698e-05,0.0,0.0
2020/02/28/11:32:52.674428,257,1582911172,674357577,vectornav,1266946390.66,0.0,0.0,0.0,0.663847446442,-0.315478265285,-9.7592458725,-0.0234010666609,-0.00112083228305,-0.00153402332217,0.0,0.0
2020/02/28/11:32:52.694440,258,1582911172,694375833,vectornav,1266946390.68,0.0,0.0,0.0,0.645768821239,-0.338670134544,-10.16385746,0.00898558739573,-0.00342937512323,-0.00034817494452,0.0,0.0
2020/02/28/11:32:52.714415,259,1582911172,714371952,vectornav,1266946390.7,0.0,0.0,0.0,0.710941791534,-0.402039259672,-9.59611415863,0.0152084836736,0.00159523868933,-0.00294693093747,0.0,0.0
2020/02/28/11:32:52.734402,260,1582911172,734343135,vectornav,1266946390.72,0.0,0.0,0.0,0.576235055923,-0.0755725130439,-9.6297712326,-0.0149279944599,-0.000133854802698,5.56074082851e-05,0.0,0.0
2020/02/28/11:32:52.754380,261,1582911172,754343227,vectornav,1266946390.74,0.0,0.0,0.0,0.785637676716,-0.566170930862,-10.0375089645,-0.0275857169181,0.00426071695983,-0.00166962295771,0.0,0.0
2020/02/28/11:32:52.774364,262,1582911172,774286591,vectornav,1266946390.76,0.0,0.0,0.0,0.76843804121,-0.302391588688,-10.1741847992,0.00967401918024,0.00929100811481,-0.00157782714814,0.0,0.0
2020/02/28/11:32:52.794365,263,1582911172,794309083,vectornav,1266946390.78,0.0,0.0,0.0,0.671574354172,-0.407783865929,-9.75046920776,0.0117325894535,0.00205298233777,-0.00244923960418,0.0,0.0
2020/02/28/11:32:52.814430,264,1582911172,814373521,vectornav,1266946390.8,0.0,0.0,0.0,0.736621797085,-0.19928380847,-9.88204288483,0.00104216579348,0.00630279723555,-0.00207703839988,0.0,0.0
2020/02/28/11:32:52.834454,265,1582911172,834327180,vectornav,1266946390.82,0.0,0.0,0.0,0.721768796444,-0.3258202672,-9.87463665009,0.016874987632,0.00453700590879,-0.00323413591832,0.0,0.0
2020/02/28/11:32:52.854364,266,1582911172,854315486,vectornav,1266946390.84,0.0,0.0,0.0,0.750596642494,0.00614409800619,-9.60997962952,0.027654722333,0.00510051753372,-0.000735628418624,0.0,0.0
2020/02/28/11:32:52.874404,267,1582911172,874353432,vectornav,1266946390.86,0.0,0.0,0.0,0.738090097904,-0.348025619984,-9.50844478607,0.00121056137141,0.00861750263721,-0.00257091782987,0.0,0.0
2020/02/28/11:32:52.894346,268,1582911172,894300494,vectornav,1266946390.88,0.0,0.0,0.0,0.686470091343,-0.336226165295,-9.75654506683,0.00242972001433,0.00421678228304,-0.000445241108537,0.0,0.0
2020/02/28/11:32:52.914367,269,1582911172,914269367,vectornav,1266946390.9,0.0,0.0,0.0,0.743695557117,-0.383294165134,-9.7582359314,0.0116308005527,-0.000230845529586,-0.00189484097064,0.0,0.0
2020/02/28/11:32:52.934323,270,1582911172,934284249,vectornav,1266946390.92,0.0,0.0,0.0,0.644790709019,-0.322387397289,-9.3812828064,0.0111008193344,-0.00628407346085,-0.00129256490618,0.0,0.0
2020/02/28/11:32:52.954318,271,1582911172,954271490,vectornav,1266946390.94,0.0,0.0,0.0,0.679603159428,-0.421057999134,-9.95811653137,0.0167730581015,-0.0033188094385,-0.00140926986933,0.0,0.0
2020/02/28/11:32:52.974248,272,1582911172,974214421,vectornav,1266946390.96,0.0,0.0,0.0,0.653601527214,-0.317546695471,-9.46633911133,0.0292226169258,-0.00650120712817,-0.00241655949503,0.0,0.0
2020/02/28/11:32:52.994285,273,1582911172,994208489,vectornav,1266946390.98,0.0,0.0,0.0,0.680467009544,-0.238450869918,-9.40951442719,-0.00884405337274,-0.00737397093326,-0.00220440328121,0.0,0.0
2020/02/28/11:32:53.014343,274,1582911173,14275233,vectornav,1266946391.0,0.0,0.0,0.0,0.774936795235,-0.640178561211,-10.1217155457,-0.0290776025504,-0.00693855248392,-0.00281150266528,0.0,0.0
2020/02/28/11:32:53.034341,275,1582911173,34270038,vectornav,1266946391.02,0.0,0.0,0.0,0.635277867317,-0.34812772274,-9.99554634094,0.0143768070266,-0.00510148983449,-0.00286784116179,0.0,0.0
2020/02/28/11:32:53.054312,276,1582911173,54249711,vectornav,1266946391.04,0.0,0.0,0.0,0.669195473194,-0.330107361078,-9.58880615234,0.0179721880704,-0.0115672098473,-0.00205971300602,0.0,0.0
2020/02/28/11:32:53.074272,277,1582911173,74223818,vectornav,1266946391.06,0.0,0.0,0.0,0.695131540298,-0.110798969865,-9.89714622498,0.00584919983521,-0.00687474478036,-0.00171767640859,0.0,0.0
2020/02/28/11:32:53.094358,278,1582911173,94292168,vectornav,1266946391.08,0.0,0.0,0.0,0.704724609852,-0.451297998428,-9.70624732971,0.0145497648045,-0.00231723999605,-0.00384489726275,0.0,0.0
2020/02/28/11:32:53.114268,279,1582911173,114167595,vectornav,1266946391.1,0.0,0.0,0.0,0.809833049774,-0.381994098425,-10.0528879166,-0.00855155102909,-0.00269274879247,-0.00371761154383,0.0,0.0
2020/02/28/11:32:53.134283,280,1582911173,134222596,vectornav,1266946391.12,0.0,0.0,0.0,0.872041106224,-0.613652706146,-10.0552349091,0.00751124322414,0.000798228662461,-0.00280462112278,0.0,0.0
2020/02/28/11:32:53.154301,281,1582911173,154205375,vectornav,1266946391.14,0.0,0.0,0.0,0.703003525734,-0.34107530117,-9.9021320343,-0.00930157117546,0.00677444040775,-6.09485432506e-05,0.0,0.0
2020/02/28/11:32:53.174233,282,1582911173,174187772,vectornav,1266946391.16,0.0,0.0,0.0,0.601994872093,-0.162347644567,-9.91835403442,0.00898157432675,-0.00381497293711,0.00256120786071,0.0,0.0
2020/02/28/11:32:53.194241,283,1582911173,194203876,vectornav,1266946391.18,0.0,0.0,0.0,0.749788403511,-0.165278851986,-9.84664535522,0.0243017859757,-0.00130964629352,0.00166149809957,0.0,0.0
2020/02/28/11:32:53.214279,284,1582911173,214175000,vectornav,1266946391.2,0.0,0.0,0.0,0.714065670967,-0.370856314898,-9.38864898682,-0.00870274659246,0.016549596563,0.00264614447951,0.0,0.0
2020/02/28/11:32:53.234219,285,1582911173,234179236,vectornav,1266946391.22,0.0,0.0,0.0,0.570520281792,-0.400720864534,-10.1316642761,-0.0320978835225,0.00827039405704,-0.0014142356813,0.0,0.0
2020/02/28/11:32:53.254277,286,1582911173,254200340,vectornav,1266946391.24,0.0,0.0,0.0,0.680411338806,-0.23677867651,-9.83621120453,0.0209333635867,0.000221679452807,0.000686312094331,0.0,0.0
2020/02/28/11:32:53.274241,287,1582911173,274156982,vectornav,1266946391.26,0.0,0.0,0.0,0.802730560303,-0.32868924737,-9.35850334167,0.0100228535011,0.0169373378158,-0.000362330116332,0.0,0.0
2020/02/28/11:32:53.294233,288,1582911173,294175624,vectornav,1266946391.28,0.0,0.0,0.0,0.576797366142,-0.25607997179,-9.72953414917,-0.0152783626691,0.00905770808458,-0.00229970458895,0.0,0.0
2020/02/28/11:32:53.314226,289,1582911173,314169080,vectornav,1266946391.3,0.0,0.0,0.0,0.735512971878,-0.0752969533205,-9.91019916534,0.0431374795735,-0.00691534951329,-0.00260346289724,0.0,0.0
2020/02/28/11:32:53.334172,290,1582911173,334140863,vectornav,1266946391.32,0.0,0.0,0.0,0.675610423088,-0.190155804157,-9.1667881012,0.0411251932383,-0.000430254265666,-0.00541972834617,0.0,0.0
2020/02/28/11:32:53.354258,291,1582911173,354175086,vectornav,1266946391.34,0.0,0.0,0.0,0.821524977684,-0.223232209682,-9.53756141663,-0.00525280507281,0.0099079972133,-0.00480716209859,0.0,0.0
2020/02/28/11:32:53.374157,292,1582911173,374114979,vectornav,1266946391.36,0.0,0.0,0.0,0.540279626846,-0.0452477671206,-9.5611076355,-0.0127435186878,-4.39533032477e-05,-0.00471246708184,0.0,0.0
2020/02/28/11:32:53.394162,293,1582911173,394114094,vectornav,1266946391.38,0.0,0.0,0.0,0.914734482765,-0.535687208176,-10.2059440613,-0.0226579513401,-0.00710306176916,-0.00553567986935,0.0,0.0
2020/02/28/11:32:53.414190,294,1582911173,414115106,vectornav,1266946391.4,0.0,0.0,0.0,0.572334587574,-0.195890218019,-9.71493148804,0.0247962530702,0.00344398268498,-0.00654107704759,0.0,0.0
2020/02/28/11:32:53.434143,295,1582911173,434106310,vectornav,1266946391.42,0.0,0.0,0.0,0.58742582798,-0.831776738167,-9.69532203674,-0.0178150366992,-0.00191893521696,-0.00759424176067,0.0,0.0
2020/02/28/11:32:53.454221,296,1582911173,454173595,vectornav,1266946391.44,0.0,0.0,0.0,0.498160541058,-0.431830853224,-10.2045497894,0.0155859217048,-0.00693845329806,-0.00538592785597,0.0,0.0
2020/02/28/11:32:53.474205,297,1582911173,474105743,vectornav,1266946391.46,0.0,0.0,0.0,0.756069242954,-0.322814255953,-9.41438102722,0.0546136721969,-0.00431269966066,-0.00469031091779,0.0,0.0
2020/02/28/11:32:53.494153,298,1582911173,494087594,vectornav,1266946391.48,0.0,0.0,0.0,0.772740662098,-0.105799891055,-8.8788433075,-0.00613920809701,0.00743154110387,-0.00309327989817,0.0,0.0
2020/02/28/11:32:53.514173,299,1582911173,514107431,vectornav,1266946391.5,0.0,0.0,0.0,0.860465109348,-0.146768718958,-10.4393882751,-0.0328828580678,-0.00333076063544,-0.00655739661306,0.0,0.0
2020/02/28/11:32:53.534099,300,1582911173,534039752,vectornav,1266946391.52,0.0,0.0,0.0,0.799440979958,-0.1800763309,-9.79042053223,0.0573282912374,-0.00767632620409,-0.00343610811979,0.0,0.0
2020/02/28/11:32:53.554123,301,1582911173,554047665,vectornav,1266946391.54,0.0,0.0,0.0,0.701412200928,-0.292425453663,-9.25065612793,-0.00541555974633,0.0048698829487,-0.00267742481083,0.0,0.0
2020/02/28/11:32:53.574097,302,1582911173,574057055,vectornav,1266946391.56,0.0,0.0,0.0,0.712339758873,-0.0851940512657,-10.3130302429,-0.0369846522808,0.000628135167062,7.2605907917e-06,0.0,0.0
2020/02/28/11:32:53.594159,303,1582911173,594068913,vectornav,1266946391.58,0.0,0.0,0.0,0.67164683342,-0.309393167496,-9.92266464233,0.0147686526179,0.0047285691835,0.00179051049054,0.0,0.0
2020/02/28/11:32:53.614087,304,1582911173,614032846,vectornav,1266946391.6,0.0,0.0,0.0,0.71695959568,-0.529725134373,-9.55069923401,-0.0050602639094,0.00744768511504,0.00024676322937,0.0,0.0
2020/02/28/11:32:53.634188,305,1582911173,634061771,vectornav,1266946391.62,0.0,0.0,0.0,0.578674674034,-0.694517850876,-10.0072984695,-0.0441484302282,0.0140420012176,4.58285212517e-05,0.0,0.0
2020/02/28/11:32:53.654047,306,1582911173,653974613,vectornav,1266946391.64,0.0,0.0,0.0,0.559975802898,-0.403660774231,-10.0578231812,0.0236841458827,0.00625140173361,-0.00262666959316,0.0,0.0
2020/02/28/11:32:53.674018,307,1582911173,673979962,vectornav,1266946391.66,0.0,0.0,0.0,0.835074007511,-0.543229818344,-9.37914085388,0.00367677467875,0.0111429393291,-0.00189533270895,0.0,0.0
2020/02/28/11:32:53.694159,308,1582911173,694082160,vectornav,1266946391.68,0.0,0.0,0.0,0.677757918835,-0.347843408585,-9.45967102051,-0.0284434482455,0.017795458436,-0.00213005486876,0.0,0.0
2020/02/28/11:32:53.713993,309,1582911173,713952996,vectornav,1266946391.7,0.0,0.0,0.0,0.646486282349,-0.915604293346,-10.2003326416,-0.0281013529748,0.00573708163574,-0.00667258352041,0.0,0.0
2020/02/28/11:32:53.734054,310,1582911173,733996221,vectornav,1266946391.72,0.0,0.0,0.0,0.698746323586,-0.231351166964,-9.49339771271,0.00834702607244,0.00473756529391,-0.00684137828648,0.0,0.0
2020/02/28/11:32:53.753991,311,1582911173,753954443,vectornav,1266946391.74,0.0,0.0,0.0,0.568506002426,-0.136355653405,-9.1787519455,-0.0105701638386,4.3110921979e-05,-0.00610136426985,0.0,0.0
2020/02/28/11:32:53.774050,312,1582911173,774011901,vectornav,1266946391.76,0.0,0.0,0.0,0.595237493515,-0.21250616014,-9.72255802155,-0.0294249597937,-0.00495748082176,-0.00513732247055,0.0,0.0
2020/02/28/11:32:53.794137,313,1582911173,794021585,vectornav,1266946391.78,0.0,0.0,0.0,0.465955466032,-0.119409449399,-10.1106443405,0.0145853599533,-0.00980816222727,-0.00405743718147,0.0,0.0
2020/02/28/11:32:53.814033,314,1582911173,813976116,vectornav,1266946391.8,0.0,0.0,0.0,0.496962934732,0.160873860121,-9.88270568848,0.0107915904373,-0.00329844327644,-0.00331573653966,0.0,0.0
2020/02/28/11:32:53.833981,315,1582911173,833944126,vectornav,1266946391.82,0.0,0.0,0.0,0.607176721096,-0.574349224567,-10.24604702,-0.0308959670365,-0.00150564638898,-0.00290073174983,0.0,0.0
2020/02/28/11:32:53.854000,316,1582911173,853954262,vectornav,1266946391.84,0.0,0.0,0.0,0.394680052996,-0.122434906662,-10.8728485107,-0.0150504056364,0.00569427059963,3.48268076777e-05,0.0,0.0
2020/02/28/11:32:53.874010,317,1582911173,873963409,vectornav,1266946391.86,0.0,0.0,0.0,0.57654696703,-0.387154519558,-10.1056375504,0.0100998617709,0.00351426610723,-0.000142358243465,0.0,0.0
2020/02/28/11:32:53.893968,318,1582911173,893926083,vectornav,1266946391.88,0.0,0.0,0.0,0.654186189175,-0.114859826863,-10.1887598038,0.00375455967151,0.0248062834144,-0.00123099051416,0.0,0.0
2020/02/28/11:32:53.914075,319,1582911173,914029851,vectornav,1266946391.9,0.0,0.0,0.0,0.507978379726,-0.276918530464,-10.008767128,0.0210212636739,0.00788692478091,-0.000502365641296,0.0,0.0
2020/02/28/11:32:53.934000,320,1582911173,933969820,vectornav,1266946391.92,0.0,0.0,0.0,0.74784976244,-0.53779900074,-9.56888580322,0.0108864214271,0.013237984851,-0.00322127807885,0.0,0.0
2020/02/28/11:32:53.953941,321,1582911173,953898434,vectornav,1266946391.94,0.0,0.0,0.0,0.359099954367,0.502470433712,-9.26236724854,0.0204044114798,0.0200280155987,-0.000410907901824,0.0,0.0
2020/02/28/11:32:53.973982,322,1582911173,973915852,vectornav,1266946391.96,0.0,0.0,0.0,0.726329803467,-0.523447751999,-9.36827659607,0.00772872939706,0.00409102346748,-0.00483615882695,0.0,0.0
2020/02/28/11:32:53.993995,323,1582911173,993948291,vectornav,1266946391.98,0.0,0.0,0.0,0.345035851002,0.430310964584,-8.39449977875,0.0772623866796,0.00613396055996,-0.00392295978963,0.0,0.0
2020/02/28/11:32:54.013941,324,1582911174,13901189,vectornav,1266946392.0,0.0,0.0,0.0,0.628275692463,-0.185583114624,-8.95555496216,-0.0504208765924,0.00464181648567,-0.00334612466395,0.0,0.0
2020/02/28/11:32:54.033911,325,1582911174,33859739,vectornav,1266946392.02,0.0,0.0,0.0,0.754188477993,-0.200468063354,-9.8663520813,-0.00330147822388,0.00753281312063,-0.00576160475612,0.0,0.0
2020/02/28/11:32:54.054028,326,1582911174,53943547,vectornav,1266946392.04,0.0,0.0,0.0,0.458403259516,0.343946456909,-8.43750953674,0.0470680743456,-0.00756583828479,-0.00234219804406,0.0,0.0
2020/02/28/11:32:54.073908,327,1582911174,73876255,vectornav,1266946392.06,0.0,0.0,0.0,0.325173795223,-0.885084986687,-8.57258987427,-0.0562520325184,-0.0119943711907,-0.00294498447329,0.0,0.0
2020/02/28/11:32:54.093985,328,1582911174,93944848,vectornav,1266946392.08,0.0,0.0,0.0,0.352911293507,-0.43651419878,-10.1632843018,0.0312090497464,-0.0248896051198,-0.00223459675908,0.0,0.0
2020/02/28/11:32:54.113937,329,1582911174,113876160,vectornav,1266946392.1,0.0,0.0,0.0,0.233975172043,-0.869171738625,-8.7668838501,0.0280582010746,-0.0146309733391,-0.00116951018572,0.0,0.0
2020/02/28/11:32:54.133916,330,1582911174,133865608,vectornav,1266946392.12,0.0,0.0,0.0,0.238361090422,-0.470734357834,-9.26674079895,-0.0385621041059,-0.0193363279104,-0.0012461040169,0.0,0.0
2020/02/28/11:32:54.153925,331,1582911174,153853222,vectornav,1266946392.14,0.0,0.0,0.0,0.44822716713,-1.20281779766,-11.0664339066,-0.0329546444118,-0.0267853084952,-0.00443317554891,0.0,0.0
2020/02/28/11:32:54.173852,332,1582911174,173798738,vectornav,1266946392.16,0.0,0.0,0.0,0.549130916595,-0.281714349985,-10.1300191879,0.0842099711299,-0.0225696731359,-0.00593228917569,0.0,0.0
2020/02/28/11:32:54.193863,333,1582911174,193831027,vectornav,1266946392.18,0.0,0.0,0.0,0.651095271111,-0.659558713436,-9.79378223419,-0.0145371900871,0.00138943921775,-0.00650794943795,0.0,0.0
2020/02/28/11:32:54.213908,334,1582911174,213834120,vectornav,1266946392.2,0.0,0.0,0.0,0.297828048468,-0.149165868759,-10.8628091812,-0.0375382378697,-0.00819872505963,-0.00533279497176,0.0,0.0
2020/02/28/11:32:54.233977,335,1582911174,233887031,vectornav,1266946392.22,0.0,0.0,0.0,0.463903605938,0.0888918116689,-10.8228931427,0.027991425246,-0.00960240419954,-0.00367031991482,0.0,0.0
2020/02/28/11:32:54.253824,336,1582911174,253783549,vectornav,1266946392.24,0.0,0.0,0.0,0.415319859982,0.280262619257,-9.58633804321,0.0357774533331,0.000331016723067,-0.00330873392522,0.0,0.0
2020/02/28/11:32:54.273814,337,1582911174,273772257,vectornav,1266946392.26,0.0,0.0,0.0,0.221150547266,-0.159127920866,-10.0205774307,-0.0552344098687,0.00437772553414,-0.00267515610904,0.0,0.0
2020/02/28/11:32:54.293820,338,1582911174,293787071,vectornav,1266946392.28,0.0,0.0,0.0,0.423156023026,-0.369081526995,-10.7544794083,-0.0088130440563,-0.00435499334708,-0.00151791702956,0.0,0.0
2020/02/28/11:32:54.313881,339,1582911174,313833959,vectornav,1266946392.3,0.0,0.0,0.0,0.481412559748,-0.433288365602,-9.50692462921,0.0267276130617,-0.00319479173049,-0.00193909276277,0.0,0.0
2020/02/28/11:32:54.333827,340,1582911174,333767764,vectornav,1266946392.32,0.0,0.0,0.0,0.442731142044,-0.520494222641,-9.34786510468,-0.0404871553183,0.00774709647521,-0.00233202241361,0.0,0.0
2020/02/28/11:32:54.353807,341,1582911174,353767437,vectornav,1266946392.34,0.0,0.0,0.0,0.420069277287,-1.02964711189,-10.076883316,-0.0528989396989,-0.00253503629938,-0.0051127159968,0.0,0.0
2020/02/28/11:32:54.373843,342,1582911174,373780881,vectornav,1266946392.36,0.0,0.0,0.0,0.680099904537,-0.594864726067,-9.46133136749,-0.00379860494286,0.00292662391439,-0.00328898523003,0.0,0.0
2020/02/28/11:32:54.393874,343,1582911174,393833916,vectornav,1266946392.38,0.0,0.0,0.0,0.435131728649,-0.326193541288,-8.82243728638,-0.0164818074554,0.000875778496265,-0.00363651663065,0.0,0.0
2020/02/28/11:32:54.413889,344,1582911174,413841969,vectornav,1266946392.4,0.0,0.0,0.0,0.271497011185,-0.318221032619,-9.6425037384,-0.0538073144853,0.00105287996121,-0.00508787017316,0.0,0.0
2020/02/28/11:32:54.433788,345,1582911174,433751495,vectornav,1266946392.42,0.0,0.0,0.0,0.301625549793,-0.468679279089,-10.2447052002,0.012756453827,-0.00593763310462,-0.00596305541694,0.0,0.0
2020/02/28/11:32:54.454782,346,1582911174,454740212,vectornav,1266946392.44,0.0,0.0,0.0,0.154793336987,-0.164669170976,-9.49661254883,0.0277189295739,0.00435685645789,-0.0068070339039,0.0,0.0
2020/02/28/11:32:54.473831,347,1582911174,473797820,vectornav,1266946392.46,0.0,0.0,0.0,0.248866245151,-0.761430978775,-9.80953407288,-0.0661823228002,0.0127988504246,-0.00662354566157,0.0,0.0
2020/02/28/11:32:54.493808,348,1582911174,493748802,vectornav,1266946392.48,0.0,0.0,0.0,0.0832844674587,-0.225431337953,-11.1441001892,-0.0328610464931,0.013456908986,-0.00524921342731,0.0,0.0
2020/02/28/11:32:54.513774,349,1582911174,513727085,vectornav,1266946392.5,0.0,0.0,0.0,0.330074548721,-0.216404378414,-9.84257316589,0.0444825924933,0.012130247429,-0.00342445634305,0.0,0.0
2020/02/28/11:32:54.534022,350,1582911174,533928997,vectornav,1266946392.52,0.0,0.0,0.0,0.229491531849,0.104965120554,-9.24547481537,-0.0317463837564,0.0199290625751,-0.00200261268765,0.0,0.0
2020/02/28/11:32:54.554764,351,1582911174,554703221,vectornav,1266946392.54,0.0,0.0,0.0,0.351191699505,-0.353518426418,-10.2973480225,-0.0572018884122,0.0141693931073,-0.000404074788094,0.0,0.0
2020/02/28/11:32:54.574723,352,1582911174,574685941,vectornav,1266946392.56,0.0,0.0,0.0,0.300087094307,-0.322531163692,-10.1697311401,0.00397848850116,0.00469282269478,-0.0005814852193,0.0,0.0
2020/02/28/11:32:54.594802,353,1582911174,594721814,vectornav,1266946392.58,0.0,0.0,0.0,0.359352171421,-0.220493972301,-9.05916118622,0.0126770604402,0.00866367481649,0.000652996823192,0.0,0.0
2020/02/28/11:32:54.613724,354,1582911174,613680882,vectornav,1266946392.6,0.0,0.0,0.0,0.0736148133874,-0.210376873612,-9.24297142029,-0.0714039877057,0.00285732373595,-0.00135255977511,0.0,0.0
2020/02/28/11:32:54.634751,355,1582911174,634682290,vectornav,1266946392.62,0.0,0.0,0.0,0.193686202168,-0.0574337802827,-10.1397209167,-0.0100766066462,-0.015903936699,4.27635386586e-05,0.0,0.0
2020/02/28/11:32:54.654715,356,1582911174,654662483,vectornav,1266946392.64,0.0,0.0,0.0,0.292240619659,-0.307928532362,-8.9138584137,0.0327129624784,-0.0126712648198,-0.000719233416021,0.0,0.0
2020/02/28/11:32:54.674670,357,1582911174,674638395,vectornav,1266946392.66,0.0,0.0,0.0,0.162757739425,-0.260731607676,-9.1537437439,-0.0709132328629,-0.00089177582413,-0.00369090121239,0.0,0.0
2020/02/28/11:32:54.694685,358,1582911174,694617544,vectornav,1266946392.68,0.0,0.0,0.0,0.415061622858,-0.355501532555,-10.4748630524,-0.0391399748623,-0.0164087861776,-0.00521765742451,0.0,0.0
2020/02/28/11:32:54.714671,359,1582911174,714637605,vectornav,1266946392.7,0.0,0.0,0.0,0.191428378224,-0.320848852396,-9.14427471161,0.0250111557543,-0.00813546963036,-0.00418529007584,0.0,0.0
2020/02/28/11:32:54.734787,360,1582911174,734729380,vectornav,1266946392.72,0.0,0.0,0.0,0.448341518641,-0.288930803537,-9.50133323669,-0.0526043139398,-0.00701055349782,-0.00472202710807,0.0,0.0
2020/02/28/11:32:54.754757,361,1582911174,754705125,vectornav,1266946392.74,0.0,0.0,0.0,0.0890120863914,-0.535527169704,-10.5815143585,-0.0193898305297,-0.00402535917237,-0.00377019960433,0.0,0.0
2020/02/28/11:32:54.774669,362,1582911174,774619546,vectornav,1266946392.76,0.0,0.0,0.0,0.229167103767,-0.298423439264,-9.91766548157,0.0262648295611,-0.00811847299337,-0.00360396970063,0.0,0.0
2020/02/28/11:32:54.794755,363,1582911174,794688817,vectornav,1266946392.78,0.0,0.0,0.0,0.392698705196,0.112041324377,-9.40369224548,0.0104646673426,0.000901996390894,-0.0046777902171,0.0,0.0
2020/02/28/11:32:54.814635,364,1582911174,814596945,vectornav,1266946392.8,0.0,0.0,0.0,0.110570326447,-0.369304031134,-10.1809921265,-0.0319779925048,0.0048690084368,-0.00355176720768,0.0,0.0
2020/02/28/11:32:54.834659,365,1582911174,834617424,vectornav,1266946392.82,0.0,0.0,0.0,0.148171544075,-0.294328421354,-10.6286144257,0.0043898881413,-0.000342425890267,-0.000275331549346,0.0,0.0
2020/02/28/11:32:54.854663,366,1582911174,854604393,vectornav,1266946392.84,0.0,0.0,0.0,0.0767315775156,-0.29010912776,-9.78530311584,0.0278428383172,0.000897072255611,0.000419109128416,0.0,0.0
2020/02/28/11:32:54.874616,367,1582911174,874567578,vectornav,1266946392.86,0.0,0.0,0.0,0.0694498121738,-0.169170960784,-9.70995330811,-0.0367706567049,0.00741651142016,0.00169853959233,0.0,0.0
2020/02/28/11:32:54.894656,368,1582911174,894610605,vectornav,1266946392.88,0.0,0.0,0.0,0.0687872692943,-0.0682247951627,-10.4075832367,-0.0245399754494,0.00701016699895,0.00195903982967,0.0,0.0
2020/02/28/11:32:54.914611,369,1582911174,914584014,vectornav,1266946392.9,0.0,0.0,0.0,0.112313374877,-0.0643374249339,-9.6902179718,0.0446761064231,-0.00912798102945,0.000553140416741,0.0,0.0
2020/02/28/11:32:54.934695,370,1582911174,934628084,vectornav,1266946392.92,0.0,0.0,0.0,0.0333111137152,-0.3192230165,-9.2173833847,-0.00695862667635,0.00269406102598,-0.00074340030551,0.0,0.0
2020/02/28/11:32:54.954672,371,1582911174,954619563,vectornav,1266946392.94,0.0,0.0,0.0,0.0177031047642,-0.143117249012,-9.8357629776,-0.0281719584018,0.00731156859547,-0.00181541312486,0.0,0.0
2020/02/28/11:32:54.974744,372,1582911174,974684111,vectornav,1266946392.96,0.0,0.0,0.0,0.178973436356,-0.316385358572,-9.79484653473,0.00654927780852,-0.00669785728678,-0.00256404932588,0.0,0.0
2020/02/28/11:32:54.994593,373,1582911174,994546658,vectornav,1266946392.98,0.0,0.0,0.0,0.00196577236056,-0.260221123695,-9.69138050079,0.0246584769338,0.000592774245888,-0.00341266114265,0.0,0.0
2020/02/28/11:32:55.014664,374,1582911175,14567017,vectornav,1266946393.0,0.0,0.0,0.0,0.00624324008822,-0.310966283083,-10.3921403885,0.036258418113,0.00285673839971,-0.00413664523512,0.0,0.0
2020/02/28/11:32:55.034585,375,1582911175,34541632,vectornav,1266946393.02,0.0,0.0,0.0,-0.20488217473,0.12076022476,-9.83956623077,0.0833367779851,-0.000585444737226,-0.00240267906338,0.0,0.0
2020/02/28/11:32:55.054672,376,1582911175,54609217,vectornav,1266946393.04,0.0,0.0,0.0,0.134451299906,0.0986557751894,-9.40806007385,0.00568608148023,0.0152274882421,-0.00225463788956,0.0,0.0
2020/02/28/11:32:55.074594,377,1582911175,74546231,vectornav,1266946393.06,0.0,0.0,0.0,0.0133783360943,-0.268267005682,-9.84149265289,-0.0584977604449,0.0262735690922,0.000580248422921,0.0,0.0
2020/02/28/11:32:55.094538,378,1582911175,94497082,vectornav,1266946393.08,0.0,0.0,0.0,0.0425095781684,-0.491947680712,-10.6308412552,-0.0075874235481,0.00648378953338,0.000596927478909,0.0,0.0
2020/02/28/11:32:55.114547,379,1582911175,114513963,vectornav,1266946393.1,0.0,0.0,0.0,0.0633676424623,-0.129619717598,-9.10907649994,0.0544943772256,-0.00450070761144,0.000796805135906,0.0,0.0
2020/02/28/11:32:55.134592,380,1582911175,134563994,vectornav,1266946393.12,0.0,0.0,0.0,0.266081392765,-0.535895228386,-8.9474439621,-0.0288165975362,0.0134714022279,0.00132502894849,0.0,0.0
2020/02/28/11:32:55.154539,381,1582911175,154491095,vectornav,1266946393.14,0.0,0.0,0.0,0.0392091087997,-0.655706882477,-9.89826869965,-0.0250661037862,0.00857201870531,-9.67364758253e-05,0.0,0.0
2020/02/28/11:32:55.174578,382,1582911175,174514168,vectornav,1266946393.16,0.0,0.0,0.0,0.242799341679,-0.209356188774,-9.4770898819,0.0483315512538,-0.00776747241616,0.000385832041502,0.0,0.0
2020/02/28/11:32:55.194567,383,1582911175,194520245,vectornav,1266946393.18,0.0,0.0,0.0,-0.147948622704,-0.255468845367,-9.35381412506,0.0211626943201,-0.00340394163504,0.0023103011772,0.0,0.0
2020/02/28/11:32:55.214569,384,1582911175,214524075,vectornav,1266946393.2,0.0,0.0,0.0,0.0125152468681,-0.131474256516,-10.5325145721,0.00984601117671,-0.00126682082191,0.00451571587473,0.0,0.0
2020/02/28/11:32:55.234668,385,1582911175,234541537,vectornav,1266946393.22,0.0,0.0,0.0,-0.110573679209,0.0502035692334,-10.0497922897,0.0583681128919,0.00163215142675,0.00645815115422,0.0,0.0
2020/02/28/11:32:55.254518,386,1582911175,254450994,vectornav,1266946393.24,0.0,0.0,0.0,-0.274049967527,0.127614915371,-9.96830272675,0.0307327210903,-0.00326387723908,0.00769271329045,0.0,0.0
2020/02/28/11:32:55.274464,387,1582911175,274430513,vectornav,1266946393.26,0.0,0.0,0.0,-0.160712450743,0.00621341355145,-10.1116371155,0.00763861788437,0.000868866220117,0.00853094365448,0.0,0.0
2020/02/28/11:32:55.294504,388,1582911175,294443230,vectornav,1266946393.28,0.0,0.0,0.0,-0.0808416008949,-0.200688242912,-10.316904068,0.0053089777939,0.00729765091091,0.00720542762429,0.0,0.0
2020/02/28/11:32:55.314540,389,1582911175,314472930,vectornav,1266946393.3,0.0,0.0,0.0,-0.042233850807,-0.0677174404263,-10.2007350922,0.00379522982985,-5.36567531526e-05,0.00820520985872,0.0,0.0
2020/02/28/11:32:55.334548,390,1582911175,334462959,vectornav,1266946393.32,0.0,0.0,0.0,-0.00495131872594,-0.5291903615,-9.99261665344,-0.00774201145396,-0.00158296572044,0.00709167029709,0.0,0.0
2020/02/28/11:32:55.354485,391,1582911175,354439492,vectornav,1266946393.34,0.0,0.0,0.0,0.341841250658,-0.325277447701,-9.75692939758,-0.0225294996053,0.0117995608598,0.00472066644579,0.0,0.0
2020/02/28/11:32:55.374563,392,1582911175,374504749,vectornav,1266946393.36,0.0,0.0,0.0,-0.0968231484294,-0.415827900171,-9.7141828537,-0.0304669793695,-0.00457685207948,0.00510597694665,0.0,0.0
2020/02/28/11:32:55.394457,393,1582911175,394388236,vectornav,1266946393.38,0.0,0.0,0.0,0.0771358683705,-0.401250898838,-9.73279762268,0.0265634227544,-0.00407793978229,0.00578472949564,0.0,0.0
2020/02/28/11:32:55.414419,394,1582911175,414372537,vectornav,1266946393.4,0.0,0.0,0.0,0.0336449444294,-0.419747769833,-8.83813095093,0.0136331627145,-0.00657280813903,0.00433890614659,0.0,0.0
2020/02/28/11:32:55.434463,395,1582911175,434414915,vectornav,1266946393.42,0.0,0.0,0.0,0.0420571193099,-0.414352416992,-9.16666030884,-0.0921076461673,0.00581734161824,0.00301854964346,0.0,0.0
2020/02/28/11:32:55.454417,396,1582911175,454375612,vectornav,1266946393.44,0.0,0.0,0.0,0.20111708343,-0.696904957294,-10.4272956848,-0.0191564094275,0.00581834744662,0.00271533057094,0.0,0.0
2020/02/28/11:32:55.474384,397,1582911175,474354088,vectornav,1266946393.46,0.0,0.0,0.0,-0.0999867022038,0.500640451908,-8.61329460144,0.0639199018478,-0.0102939102799,0.0083388146013,0.0,0.0
2020/02/28/11:32:55.494446,398,1582911175,494386808,vectornav,1266946393.48,0.0,0.0,0.0,0.233237430453,-0.462721288204,-8.6569814682,-0.0541453324258,-0.00157945882529,0.0108305197209,0.0,0.0
2020/02/28/11:32:55.514430,399,1582911175,514390787,vectornav,1266946393.5,0.0,0.0,0.0,0.109502010047,-0.621418058872,-10.4850769043,-0.0563357658684,0.0213095713407,0.0109936064109,0.0,0.0
2020/02/28/11:32:55.534426,400,1582911175,534352246,vectornav,1266946393.52,0.0,0.0,0.0,0.171826973557,-0.467212498188,-9.9252243042,0.0256353579462,0.0223677512258,0.0129430787638,0.0,0.0
2020/02/28/11:32:55.554481,401,1582911175,554353830,vectornav,1266946393.54,0.0,0.0,0.0,-0.0766058415174,0.609256267548,-8.58156013489,-0.0116108236834,0.0133728608489,0.0160648301244,0.0,0.0
2020/02/28/11:32:55.574389,402,1582911175,574348456,vectornav,1266946393.56,0.0,0.0,0.0,0.0383176058531,-0.263044446707,-9.93623161316,-0.111120022833,0.016345847398,0.0169173814356,0.0,0.0
2020/02/28/11:32:55.594446,403,1582911175,594364041,vectornav,1266946393.58,0.0,0.0,0.0,0.00574408471584,-1.07186853886,-11.150384903,-0.00682859262452,0.0299554727972,0.0161886997521,0.0,0.0
2020/02/28/11:32:55.614359,404,1582911175,614331882,vectornav,1266946393.6,0.0,0.0,0.0,-0.0988970249891,-0.220409944654,-9.56703186035,0.0396319180727,0.0174028873444,0.0148173766211,0.0,0.0
2020/02/28/11:32:55.634351,405,1582911175,634303252,vectornav,1266946393.62,0.0,0.0,0.0,-0.454418212175,-0.51955062151,-8.67566108704,-0.0509351305664,0.0115124769509,0.0142336999997,0.0,0.0
2020/02/28/11:32:55.654413,406,1582911175,654357090,vectornav,1266946393.64,0.0,0.0,0.0,-0.0394228920341,-0.287493348122,-10.6634998322,-0.130130022764,0.0254640188068,0.0149307670072,0.0,0.0
2020/02/28/11:32:55.674431,407,1582911175,674356807,vectornav,1266946393.66,0.0,0.0,0.0,0.0690662264824,-0.335763722658,-9.8812084198,0.0170478280634,0.0172414835542,0.0157181434333,0.0,0.0
2020/02/28/11:32:55.694416,408,1582911175,694372426,vectornav,1266946393.68,0.0,0.0,0.0,-0.0337247774005,0.166875764728,-9.26134490967,-0.0343044362962,-0.000440611038357,0.0113924629986,0.0,0.0
2020/02/28/11:32:55.714340,409,1582911175,714291156,vectornav,1266946393.7,0.0,0.0,0.0,0.141518369317,-0.22245015204,-9.94115257263,-0.0522021427751,-0.00476221228018,0.0114667899907,0.0,0.0
2020/02/28/11:32:55.734366,410,1582911175,734319442,vectornav,1266946393.72,0.0,0.0,0.0,-0.084541708231,0.0505359582603,-10.2754230499,-0.027125261724,0.00729452911764,0.0115725044161,0.0,0.0
2020/02/28/11:32:55.754465,411,1582911175,754300999,vectornav,1266946393.74,0.0,0.0,0.0,-0.00632324442267,0.028730193153,-9.58637428284,0.010887125507,-0.0053272023797,0.011619862169,0.0,0.0
2020/02/28/11:32:55.774335,412,1582911175,774263036,vectornav,1266946393.76,0.0,0.0,0.0,-0.297595888376,0.0106823360547,-9.98256397247,-0.033828869462,-0.0138503611088,0.0102080637589,0.0,0.0
2020/02/28/11:32:55.794371,413,1582911175,794330989,vectornav,1266946393.78,0.0,0.0,0.0,-0.125065758824,-0.0541073977947,-10.1141033173,-0.00141075742431,-0.012039532885,0.0109203997999,0.0,0.0
2020/02/28/11:32:55.814369,414,1582911175,814317750,vectornav,1266946393.8,0.0,0.0,0.0,-0.0942075848579,-0.250844419003,-10.1428966522,-0.00725045800209,-0.0109449401498,0.0120460912585,0.0,0.0
2020/02/28/11:32:55.834397,415,1582911175,834289730,vectornav,1266946393.82,0.0,0.0,0.0,-0.210799053311,-0.458026498556,-10.2865829468,-0.00604808656499,-0.010500639677,0.0128633799031,0.0,0.0
2020/02/28/11:32:55.854279,416,1582911175,854233394,vectornav,1266946393.84,0.0,0.0,0.0,-0.0287271942943,-0.130402565002,-10.4992589951,0.00136166717857,-0.00837626960129,0.0141428988427,0.0,0.0
2020/02/28/11:32:55.874338,417,1582911175,874286661,vectornav,1266946393.86,0.0,0.0,0.0,-0.143736854196,-0.354537069798,-10.2606487274,-0.022637443617,-0.00656679458916,0.0179742332548,0.0,0.0
2020/02/28/11:32:55.894323,418,1582911175,894291229,vectornav,1266946393.88,0.0,0.0,0.0,0.0345652922988,-0.23137319088,-10.6267223358,0.000946498243138,-0.000308806076646,0.018480360508,0.0,0.0
2020/02/28/11:32:55.914276,419,1582911175,914230422,vectornav,1266946393.9,0.0,0.0,0.0,-0.0257049743086,0.527465999126,-9.75286102295,0.00532001955435,0.0044178487733,0.0192121341825,0.0,0.0
2020/02/28/11:32:55.934263,420,1582911175,934208781,vectornav,1266946393.92,0.0,0.0,0.0,-0.00148537196219,0.322624355555,-9.10797691345,0.00601536454633,0.00437552342191,0.0204489622265,0.0,0.0
2020/02/28/11:32:55.954300,421,1582911175,954242982,vectornav,1266946393.94,0.0,0.0,0.0,-0.00325214676559,0.0928749069571,-9.6665096283,-0.0195215940475,-0.000364562496543,0.0221195667982,0.0,0.0
2020/02/28/11:32:55.974252,422,1582911175,974200363,vectornav,1266946393.96,0.0,0.0,0.0,0.222763001919,-0.415539264679,-9.41127204895,0.0222780816257,0.00696857366711,0.0207319520414,0.0,0.0
2020/02/28/11:32:55.994280,423,1582911175,994212505,vectornav,1266946393.98,0.0,0.0,0.0,-0.0551993176341,-0.142066538334,-8.89281845093,-0.00997000280768,0.0075553599745,0.0167333595455,0.0,0.0
2020/02/28/11:32:56.014257,424,1582911176,14210739,vectornav,1266946394.0,0.0,0.0,0.0,-0.148233935237,-0.0565029084682,-9.44666576385,-0.0114404931664,-0.00599049637094,0.0173399709165,0.0,0.0
2020/02/28/11:32:56.034286,425,1582911176,34196747,vectornav,1266946394.02,0.0,0.0,0.0,0.0387194603682,-0.436183124781,-8.98271369934,0.0264873448759,0.00186091731302,0.0171141512692,0.0,0.0
2020/02/28/11:32:56.054300,426,1582911176,54234451,vectornav,1266946394.04,0.0,0.0,0.0,-0.0340939834714,-0.489421248436,-9.09843158722,-0.0236539952457,0.00924831721932,0.0146662229672,0.0,0.0
2020/02/28/11:32:56.074335,427,1582911176,74241369,vectornav,1266946394.06,0.0,0.0,0.0,-0.185608044267,-0.417497098446,-9.57286262512,-0.0370866470039,0.00166988675483,0.0136783532798,0.0,0.0
2020/02/28/11:32:56.094196,428,1582911176,94161951,vectornav,1266946394.08,0.0,0.0,0.0,-0.0813020393252,0.00818753242493,-9.94025993347,0.025369239971,-0.00514588272199,0.0128283211961,0.0,0.0
2020/02/28/11:32:56.114279,429,1582911176,114237574,vectornav,1266946394.1,0.0,0.0,0.0,-0.251301199198,-0.242996633053,-9.57449626923,0.0193095132709,-0.00792267732322,0.014582038857,0.0,0.0
2020/02/28/11:32:56.134288,430,1582911176,134195774,vectornav,1266946394.12,0.0,0.0,0.0,-0.226079687476,-0.0265624374151,-10.0594367981,-0.0239740181714,0.00369951920584,0.0156259872019,0.0,0.0
2020/02/28/11:32:56.154236,431,1582911176,154189674,vectornav,1266946394.14,0.0,0.0,0.0,-0.193954691291,-0.187268286943,-10.3214912415,-0.0219758152962,0.00374871492386,0.0173982866108,0.0,0.0
2020/02/28/11:32:56.174246,432,1582911176,174172273,vectornav,1266946394.16,0.0,0.0,0.0,-0.0904966965318,0.0427928231657,-10.1144714355,-0.0229831747711,0.00569089967757,0.0185463540256,0.0,0.0
2020/02/28/11:32:56.194234,433,1582911176,194171057,vectornav,1266946394.18,0.0,0.0,0.0,-0.102989651263,-0.300882309675,-10.1415805817,-0.0139256808907,0.0082671539858,0.020956767723,0.0,0.0
2020/02/28/11:32:56.214264,434,1582911176,214165446,vectornav,1266946394.2,0.0,0.0,0.0,-0.185423240066,0.0649876147509,-10.2832603455,-0.0178549103439,0.00144732091576,0.0229101404548,0.0,0.0
2020/02/28/11:32:56.234211,435,1582911176,234163579,vectornav,1266946394.22,0.0,0.0,0.0,-0.187293857336,0.256275624037,-9.87870025635,0.0141770513728,0.00541982380673,0.024386819452,0.0,0.0
2020/02/28/11:32:56.254220,436,1582911176,254133956,vectornav,1266946394.24,0.0,0.0,0.0,-0.184751346707,0.234464898705,-9.59495925903,-0.0243141129613,0.0101628005505,0.0244363434613,0.0,0.0
2020/02/28/11:32:56.274206,437,1582911176,274108576,vectornav,1266946394.26,0.0,0.0,0.0,-0.20735733211,-0.291687130928,-10.2903938293,-0.029986076057,0.00207674363628,0.0256473086774,0.0,0.0
2020/02/28/11:32:56.294260,438,1582911176,294179138,vectornav,1266946394.28,0.0,0.0,0.0,-0.2555809021,-0.200360491872,-10.1928005219,0.00523574883118,-0.00705458642915,0.0266481600702,0.0,0.0
2020/02/28/11:32:56.314119,439,1582911176,314085431,vectornav,1266946394.3,0.0,0.0,0.0,-0.336785703897,-0.107470810413,-9.66422271729,0.00707182241604,-0.00404499378055,0.0256032031029,0.0,0.0
2020/02/28/11:32:56.334180,440,1582911176,334137404,vectornav,1266946394.32,0.0,0.0,0.0,-0.505925655365,0.101367272437,-9.89813804626,-0.00617248052731,-0.00660201348364,0.0244669634849,0.0,0.0
2020/02/28/11:32:56.354096,441,1582911176,354046101,vectornav,1266946394.34,0.0,0.0,0.0,-0.472835928202,-0.413594961166,-10.0535230637,-0.0120902117342,-0.0129986815155,0.0223061740398,0.0,0.0
2020/02/28/11:32:56.374228,442,1582911176,374182054,vectornav,1266946394.36,0.0,0.0,0.0,-0.197824642062,-0.185807332397,-10.1154117584,-0.00396905094385,-0.0108881974593,0.0193461813033,0.0,0.0
2020/02/28/11:32:56.394158,443,1582911176,394118263,vectornav,1266946394.38,0.0,0.0,0.0,-0.269936829805,-0.0287279281765,-9.58048057556,0.0155159877613,-0.0100569939241,0.0189031176269,0.0,0.0
2020/02/28/11:32:56.414130,444,1582911176,414060629,vectornav,1266946394.4,0.0,0.0,0.0,0.0755608379841,0.266891211271,-10.1044559479,-0.00233159773052,-0.0134505555034,0.0206256844103,0.0,0.0
2020/02/28/11:32:56.434092,445,1582911176,434051493,vectornav,1266946394.42,0.0,0.0,0.0,-0.0411676131189,0.0520208664238,-9.16276931763,0.0397096648812,-0.00575708784163,0.0211941190064,0.0,0.0
2020/02/28/11:32:56.454058,446,1582911176,454021827,vectornav,1266946394.44,0.0,0.0,0.0,-0.0886066257954,0.430943787098,-9.43694019318,-0.0144891701639,-0.00793112907559,0.0215017907321,0.0,0.0
2020/02/28/11:32:56.474056,447,1582911176,474013840,vectornav,1266946394.46,0.0,0.0,0.0,0.0328955464065,0.00189499603584,-9.64942932129,0.0403516478837,-0.00956597458571,0.0231104772538,0.0,0.0
2020/02/28/11:32:56.494040,448,1582911176,494000254,vectornav,1266946394.48,0.0,0.0,0.0,-0.332030504942,0.335443526506,-9.14393234253,0.0475329458714,-0.00974622834474,0.02457017079,0.0,0.0
2020/02/28/11:32:56.514099,449,1582911176,514031088,vectornav,1266946394.5,0.0,0.0,0.0,-0.314199835062,-0.224884688854,-9.17326927185,0.0253675784916,-0.00457666441798,0.0254250243306,0.0,0.0
2020/02/28/11:32:56.534043,450,1582911176,533996669,vectornav,1266946394.52,0.0,0.0,0.0,-0.184587717056,0.133926033974,-9.77288246155,0.0397507809103,-0.00134151848033,0.0271684061736,0.0,0.0
2020/02/28/11:32:56.554102,451,1582911176,554024252,vectornav,1266946394.54,0.0,0.0,0.0,-0.0980737432837,-0.44727909565,-9.21149539948,0.0354301705956,0.000500001944602,0.0288952142,0.0,0.0
2020/02/28/11:32:56.574048,452,1582911176,573994589,vectornav,1266946394.56,0.0,0.0,0.0,0.112061373889,-0.170199468732,-10.090461731,-0.0205514971167,0.0121788550168,0.0286748073995,0.0,0.0
2020/02/28/11:32:56.594097,453,1582911176,594022301,vectornav,1266946394.58,0.0,0.0,0.0,-0.385586798191,-0.375149548054,-10.2390546799,0.0219539869577,-0.000144132878631,0.0285520814359,0.0,0.0
2020/02/28/11:32:56.614023,454,1582911176,613972617,vectornav,1266946394.6,0.0,0.0,0.0,-0.296015322208,0.0206309314817,-10.0390968323,0.0641424655914,-0.00771255418658,0.029774710536,0.0,0.0
2020/02/28/11:32:56.633995,455,1582911176,633942087,vectornav,1266946394.62,0.0,0.0,0.0,-0.0650017410517,-0.420209884644,-9.66252326965,0.0239728242159,0.00577254034579,0.028801523149,0.0,0.0
2020/02/28/11:32:56.654072,456,1582911176,654029114,vectornav,1266946394.64,0.0,0.0,0.0,-0.166249781847,-0.719307422638,-10.468328476,-0.0288350060582,0.0114407818764,0.0263512786478,0.0,0.0
2020/02/28/11:32:56.674128,457,1582911176,674023829,vectornav,1266946394.66,0.0,0.0,0.0,-0.21626073122,-0.509916365147,-10.5805740356,-0.000513004197273,0.00699446862563,0.0248501822352,0.0,0.0
2020/02/28/11:32:56.694034,458,1582911176,693990859,vectornav,1266946394.68,0.0,0.0,0.0,-0.180784016848,-0.128058150411,-10.1252212524,0.0479087978601,0.00745883444324,0.0254278630018,0.0,0.0
2020/02/28/11:32:56.714004,459,1582911176,713969961,vectornav,1266946394.7,0.0,0.0,0.0,-0.28268969059,-0.358220696449,-9.61187553406,-0.013389531523,0.00943116098642,0.0253313370049,0.0,0.0
2020/02/28/11:32:56.734032,460,1582911176,733968011,vectornav,1266946394.72,0.0,0.0,0.0,-0.146254345775,-0.360010623932,-10.3581457138,0.00250740908086,0.00888598896563,0.0256096441299,0.0,0.0
2020/02/28/11:32:56.754016,461,1582911176,753969268,vectornav,1266946394.74,0.0,0.0,0.0,-0.328597187996,-0.309179127216,-9.49971961975,0.0294414460659,0.0035693552345,0.0254601351917,0.0,0.0
2020/02/28/11:32:56.773977,462,1582911176,773946110,vectornav,1266946394.76,0.0,0.0,0.0,-0.216835856438,-0.407511144876,-9.63127708435,-0.00762569578364,0.00142048439011,0.0250681936741,0.0,0.0
2020/02/28/11:32:56.794064,463,1582911176,794018625,vectornav,1266946394.78,0.0,0.0,0.0,-0.242474883795,-0.244323760271,-9.85729789734,-0.0152643816546,-0.00132745411247,0.0275591481477,0.0,0.0
2020/02/28/11:32:56.813957,464,1582911176,813919804,vectornav,1266946394.8,0.0,0.0,0.0,-0.3482439816,-0.240457653999,-9.79685401917,-0.0019763042219,-0.00618240889162,0.0283928997815,0.0,0.0
2020/02/28/11:32:56.833969,465,1582911176,833905289,vectornav,1266946394.82,0.0,0.0,0.0,-0.329722225666,-0.31787070632,-9.96585083008,-0.0197538509965,-0.00748164765537,0.0306214950979,0.0,0.0
2020/02/28/11:32:56.854019,466,1582911176,853947197,vectornav,1266946394.84,0.0,0.0,0.0,-0.193985059857,-0.016800224781,-9.89984703064,0.00759862922132,-0.0104715488851,0.0313473120332,0.0,0.0
2020/02/28/11:32:56.873955,467,1582911176,873911243,vectornav,1266946394.86,0.0,0.0,0.0,-0.378420501947,-0.704462468624,-9.83285331726,-0.0410916469991,-0.00236915471032,0.0299474596977,0.0,0.0
2020/02/28/11:32:56.893960,468,1582911176,893891549,vectornav,1266946394.88,0.0,0.0,0.0,-0.367674082518,-0.205005928874,-10.379281044,-0.0344384014606,0.00417375797406,0.0306900404394,0.0,0.0
2020/02/28/11:32:56.913883,469,1582911176,913846224,vectornav,1266946394.9,0.0,0.0,0.0,0.0129473442212,-0.333412408829,-10.084353447,-0.00797335151583,-0.00154898921028,0.0310318712145,0.0,0.0
2020/02/28/11:32:56.933925,470,1582911176,933879645,vectornav,1266946394.92,0.0,0.0,0.0,-0.316381156445,-0.0787814632058,-9.47648334503,-0.0182501375675,0.0073194084689,0.0307545773685,0.0,0.0
2020/02/28/11:32:56.953948,471,1582911176,953869905,vectornav,1266946394.94,0.0,0.0,0.0,-0.261664658785,-0.286683231592,-10.2342882156,-0.0558821223676,0.00617408007383,0.0282744970173,0.0,0.0
2020/02/28/11:32:56.973946,472,1582911176,973888060,vectornav,1266946394.96,0.0,0.0,0.0,-0.145519524813,-0.449088871479,-10.018872261,0.0126723721623,0.0112175736576,0.0279088392854,0.0,0.0
2020/02/28/11:32:56.993964,473,1582911176,993860401,vectornav,1266946394.98,0.0,0.0,0.0,-0.119384631515,0.0520196780562,-8.8901386261,-0.0145184025168,0.010059600696,0.0271745566279,0.0,0.0
2020/02/28/11:32:57.013943,474,1582911177,13858089,vectornav,1266946395.0,0.0,0.0,0.0,-0.184634998441,-0.384121000767,-9.86892986298,-0.074309669435,0.0132349170744,0.024716142565,0.0,0.0
2020/02/28/11:32:57.033975,475,1582911177,33867029,vectornav,1266946395.02,0.0,0.0,0.0,0.0654059797525,-0.0698463171721,-10.3557672501,0.00379542890005,0.0176594462246,0.0234301947057,0.0,0.0
2020/02/28/11:32:57.053892,476,1582911177,53840835,vectornav,1266946395.04,0.0,0.0,0.0,-0.235404863954,0.0383757837117,-8.65231990814,0.0312861092389,0.00931629352272,0.0226066559553,0.0,0.0
2020/02/28/11:32:57.073930,477,1582911177,73847078,vectornav,1266946395.06,0.0,0.0,0.0,-0.194641456008,-0.263291925192,-9.66801834106,-0.0931592062116,0.0145253902301,0.021790497005,0.0,0.0
2020/02/28/11:32:57.093873,478,1582911177,93807720,vectornav,1266946395.08,0.0,0.0,0.0,-0.0901757106185,-0.342189013958,-10.7858448029,0.0212799627334,0.0195775683969,0.021979957819,0.0,0.0
2020/02/28/11:32:57.113895,479,1582911177,113821167,vectornav,1266946395.1,0.0,0.0,0.0,-0.252624452114,-0.131601691246,-9.06478977203,0.0377681776881,0.0113017465919,0.022520404309,0.0,0.0
2020/02/28/11:32:57.134033,480,1582911177,133869574,vectornav,1266946395.12,0.0,0.0,0.0,-0.218460008502,0.440169543028,-9.60579109192,-0.0265779402107,0.00777755212039,0.0234938450158,0.0,0.0
2020/02/28/11:32:57.153883,481,1582911177,153821269,vectornav,1266946395.14,0.0,0.0,0.0,-0.253951519728,-0.0384737886488,-10.1227769852,0.0352402962744,0.0126466685906,0.0264353603125,0.0,0.0
2020/02/28/11:32:57.174910,482,1582911177,174814759,vectornav,1266946395.16,0.0,0.0,0.0,-0.259967327118,0.114178396761,-9.5440826416,0.0385636240244,0.00953652989119,0.0268912538886,0.0,0.0
2020/02/28/11:32:57.193883,483,1582911177,193821119,vectornav,1266946395.18,0.0,0.0,0.0,-0.112175516784,0.238600596786,-9.4331111908,-0.0113522252068,0.00467006862164,0.0289282761514,0.0,0.0
2020/02/28/11:32:57.213877,484,1582911177,213835296,vectornav,1266946395.2,0.0,0.0,0.0,-0.299358963966,-0.0456415005028,-10.6038379669,-0.000905850494746,0.00632604211569,0.0286281574517,0.0,0.0
2020/02/28/11:32:57.233811,485,1582911177,233767342,vectornav,1266946395.22,0.0,0.0,0.0,-0.226766064763,-0.241166561842,-10.2323675156,0.0657582804561,-0.0114533491433,0.0307516343892,0.0,0.0
2020/02/28/11:32:57.253829,486,1582911177,253791760,vectornav,1266946395.24,0.0,0.0,0.0,0.00106852129102,-0.1229025051,-9.55274105072,0.0235954988748,0.00829591695219,0.0298802629113,0.0,0.0
2020/02/28/11:32:57.273937,487,1582911177,273841594,vectornav,1266946395.26,0.0,0.0,0.0,-0.311863958836,-0.179452285171,-9.79643821716,-0.0211399849504,0.00446262769401,0.027697680518,0.0,0.0
2020/02/28/11:32:57.293864,488,1582911177,293825477,vectornav,1266946395.28,0.0,0.0,0.0,-0.157450333238,-0.311722785234,-10.5709524155,0.0054053934291,-0.000741844531149,0.0249745249748,0.0,0.0
2020/02/28/11:32:57.313866,489,1582911177,313789899,vectornav,1266946395.3,0.0,0.0,0.0,-0.182308450341,-0.513890862465,-9.50359249115,0.043861489743,0.00293467706069,0.0258355773985,0.0,0.0
2020/02/28/11:32:57.333886,490,1582911177,333774575,vectornav,1266946395.32,0.0,0.0,0.0,-0.131997555494,0.168009370565,-9.59262752533,-0.00330241094343,0.00576155306771,0.0255300700665,0.0,0.0
2020/02/28/11:32:57.353848,491,1582911177,353803310,vectornav,1266946395.34,0.0,0.0,0.0,-0.0464142560959,-0.3768260777,-9.60163879395,-0.00476730568334,-0.00157579965889,0.0232439339161,0.0,0.0
2020/02/28/11:32:57.374786,492,1582911177,374744650,vectornav,1266946395.36,0.0,0.0,0.0,-0.226400539279,0.151843652129,-9.96496582031,0.0106355734169,0.00394120952114,0.0240708384663,0.0,0.0
2020/02/28/11:32:57.393772,493,1582911177,393742421,vectornav,1266946395.38,0.0,0.0,0.0,0.0843727588654,-0.366835355759,-9.35098361969,0.0339300073683,-0.000127258710563,0.0244848914444,0.0,0.0
2020/02/28/11:32:57.413790,494,1582911177,413688946,vectornav,1266946395.4,0.0,0.0,0.0,-0.0164118595421,-0.084395006299,-9.39877796173,-0.0163660552353,0.000456976704299,0.0244917981327,0.0,0.0
2020/02/28/11:32:57.434728,495,1582911177,434690771,vectornav,1266946395.42,0.0,0.0,0.0,-0.0377532504499,-0.499232709408,-9.85934257507,0.0034150951542,0.0128303393722,0.0243172980845,0.0,0.0
2020/02/28/11:32:57.453753,496,1582911177,453721117,vectornav,1266946395.44,0.0,0.0,0.0,-0.155139818788,0.240955799818,-9.52261543274,0.0274120550603,0.00860851630569,0.0242793262005,0.0,0.0
2020/02/28/11:32:57.473826,497,1582911177,473752744,vectornav,1266946395.46,0.0,0.0,0.0,-0.0586775057018,-0.11468949914,-9.03067874908,-0.00140525191091,0.00689218519256,0.0276108942926,0.0,0.0
2020/02/28/11:32:57.494716,498,1582911177,494681479,vectornav,1266946395.48,0.0,0.0,0.0,-0.154796183109,-0.324806153774,-9.98229694366,-0.0313957333565,0.0171219110489,0.0278221331537,0.0,0.0
2020/02/28/11:32:57.514738,499,1582911177,514694357,vectornav,1266946395.5,0.0,0.0,0.0,-0.365059196949,-0.470627903938,-9.99920558929,-0.00137287529651,0.0120872100815,0.0276056565344,0.0,0.0
2020/02/28/11:32:57.533760,500,1582911177,533708226,vectornav,1266946395.52,0.0,0.0,0.0,-0.130455449224,0.17445628345,-9.8435459137,0.0333489179611,0.00171342259273,0.0279864314944,0.0,0.0
2020/02/28/11:32:57.554739,501,1582911177,554689078,vectornav,1266946395.54,0.0,0.0,0.0,-0.230773061514,-0.0571524947882,-9.14535522461,-0.0148449521512,0.0139776775613,0.0294683519751,0.0,0.0
2020/02/28/11:32:57.574793,502,1582911177,574734941,vectornav,1266946395.56,0.0,0.0,0.0,-0.194142729044,-0.295778632164,-10.5561943054,-0.0483506582677,0.0108486767858,0.0286061763763,0.0,0.0
2020/02/28/11:32:57.594682,503,1582911177,594648693,vectornav,1266946395.58,0.0,0.0,0.0,-0.205509051681,-0.488607704639,-10.3378458023,0.0184339024127,0.00833190605044,0.0260599628091,0.0,0.0
2020/02/28/11:32:57.614722,504,1582911177,614686051,vectornav,1266946395.6,0.0,0.0,0.0,-0.192285180092,0.0584030151367,-9.46207141876,0.0253636315465,0.00904807634652,0.0263091977686,0.0,0.0
2020/02/28/11:32:57.634734,505,1582911177,634680228,vectornav,1266946395.62,0.0,0.0,0.0,-0.227621972561,-0.252324730158,-9.49380970001,-0.0461648628116,0.000876484438777,0.026751767844,0.0,0.0
2020/02/28/11:32:57.654643,506,1582911177,654592719,vectornav,1266946395.64,0.0,0.0,0.0,-0.230036854744,-0.272684693336,-10.7963190079,-0.00863455142826,0.00549819506705,0.0247043613344,0.0,0.0
2020/02/28/11:32:57.674693,507,1582911177,674642654,vectornav,1266946395.66,0.0,0.0,0.0,-0.31231379509,0.0933607369661,-9.68374729156,0.0446503832936,0.000916644232348,0.0250944923609,0.0,0.0
2020/02/28/11:32:57.694724,508,1582911177,694672517,vectornav,1266946395.68,0.0,0.0,0.0,-0.190038055182,0.309090942144,-9.43065929413,-0.0247686114162,0.0027321013622,0.0255756154656,0.0,0.0
2020/02/28/11:32:57.714672,509,1582911177,714636527,vectornav,1266946395.7,0.0,0.0,0.0,-0.261524111032,0.0583597533405,-10.3550872803,-0.0417854934931,-0.0011659283191,0.0263430923223,0.0,0.0
2020/02/28/11:32:57.734674,510,1582911177,734604175,vectornav,1266946395.72,0.0,0.0,0.0,-0.267235159874,0.00339921168052,-9.92750358582,0.0246679987758,0.0106349401176,0.0238617174327,0.0,0.0
2020/02/28/11:32:57.754717,511,1582911177,754645723,vectornav,1266946395.74,0.0,0.0,0.0,-0.371689200401,-0.0516131296754,-9.22689533234,-0.0425522401929,0.0108413603157,0.0233002603054,0.0,0.0
2020/02/28/11:32:57.774669,512,1582911177,774570551,vectornav,1266946395.76,0.0,0.0,0.0,-0.261371612549,-0.152386531234,-10.414525032,-0.0466345511377,0.000846839044243,0.0229532681406,0.0,0.0
2020/02/28/11:32:57.794741,513,1582911177,794644725,vectornav,1266946395.78,0.0,0.0,0.0,-0.272438973188,-0.319210916758,-9.74111461639,0.0548547394574,-8.18432308733e-05,0.0222551245242,0.0,0.0
2020/02/28/11:32:57.814595,514,1582911177,814541236,vectornav,1266946395.8,0.0,0.0,0.0,-0.267588526011,-0.359829992056,-9.24138641357,0.0185029171407,0.000230211764574,0.021898124367,0.0,0.0
2020/02/28/11:32:57.834622,515,1582911177,834578438,vectornav,1266946395.82,0.0,0.0,0.0,-0.0989046543837,-0.181593105197,-10.0465574265,-0.00403947383165,0.00499585503712,0.0210753530264,0.0,0.0
2020/02/28/11:32:57.854674,516,1582911177,854608048,vectornav,1266946395.84,0.0,0.0,0.0,-0.121732696891,0.0814917758107,-9.58662319183,0.0776728093624,-0.00387146044523,0.0211854539812,0.0,0.0
2020/02/28/11:32:57.874651,517,1582911177,874559390,vectornav,1266946395.86,0.0,0.0,0.0,-0.0900834202766,0.114817604423,-8.85821437836,0.0294816941023,-0.00201920513064,0.023021524772,0.0,0.0
2020/02/28/11:32:57.894643,518,1582911177,894557345,vectornav,1266946395.88,0.0,0.0,0.0,-0.0979920476675,0.137479543686,-9.62916851044,-0.00479353358969,0.00756854284555,0.0246384032071,0.0,0.0
2020/02/28/11:32:57.914607,519,1582911177,914567176,vectornav,1266946395.9,0.0,0.0,0.0,-0.091919362545,0.055133536458,-9.75607585907,0.0408970937133,0.0109978560358,0.0237457174808,0.0,0.0
2020/02/28/11:32:57.934610,520,1582911177,934562455,vectornav,1266946395.92,0.0,0.0,0.0,-0.263212859631,0.321943432093,-9.11777210236,0.0379605405033,0.000399106182158,0.0244481153786,0.0,0.0
2020/02/28/11:32:57.954548,521,1582911177,954498883,vectornav,1266946395.94,0.0,0.0,0.0,-0.189080506563,-0.163942307234,-9.51339244843,-0.0066556208767,0.00273243687116,0.0254505984485,0.0,0.0
2020/02/28/11:32:57.974641,522,1582911177,974534733,vectornav,1266946395.96,0.0,0.0,0.0,-0.142018854618,-0.235750347376,-9.76303768158,0.00423552235588,0.00911269057542,0.0252210535109,0.0,0.0
2020/02/28/11:32:57.994494,523,1582911177,994447777,vectornav,1266946395.98,0.0,0.0,0.0,-0.206039205194,-0.0430986322463,-9.24075126648,0.0322955697775,0.00740516511723,0.0229646284133,0.0,0.0
2020/02/28/11:32:58.014581,524,1582911178,14462599,vectornav,1266946396.0,0.0,0.0,0.0,-0.0436308011413,-0.150847882032,-9.34293842316,-0.0117566147819,0.00218257494271,0.0242315791547,0.0,0.0
2020/02/28/11:32:58.034526,525,1582911178,34445685,vectornav,1266946396.02,0.0,0.0,0.0,-0.083975456655,-0.332897096872,-9.88275527954,-0.00401682639495,0.00662716059014,0.0243731345981,0.0,0.0
2020/02/28/11:32:58.054524,526,1582911178,54451630,vectornav,1266946396.04,0.0,0.0,0.0,-0.245179757476,-0.581211805344,-9.79807662964,0.0269475914538,0.00303633883595,0.0226881876588,0.0,0.0
2020/02/28/11:32:58.074498,527,1582911178,74436675,vectornav,1266946396.06,0.0,0.0,0.0,-0.144880712032,-0.521306872368,-9.89476394653,0.00288132135756,0.00161747215316,0.0207721963525,0.0,0.0
2020/02/28/11:32:58.094523,528,1582911178,94442905,vectornav,1266946396.08,0.0,0.0,0.0,-0.0752516165376,-0.195159226656,-9.72622489929,0.0206106379628,0.00811780337244,0.0222682654858,0.0,0.0
2020/02/28/11:32:58.114449,529,1582911178,114420542,vectornav,1266946396.1,0.0,0.0,0.0,-0.209382638335,-0.464684039354,-9.86686229706,-0.0146423755214,0.000293052289635,0.0230360478163,0.0,0.0
2020/02/28/11:32:58.134501,530,1582911178,134447333,vectornav,1266946396.12,0.0,0.0,0.0,-0.19337759912,-0.135051622987,-10.6149234772,0.0206643100828,-0.00406451197341,0.0222838371992,0.0,0.0
2020/02/28/11:32:58.154467,531,1582911178,154404837,vectornav,1266946396.14,0.0,0.0,0.0,-0.317020714283,0.130015343428,-9.96058273315,0.0437128543854,0.00103453337215,0.0228087194264,0.0,0.0
2020/02/28/11:32:58.174473,532,1582911178,174415389,vectornav,1266946396.16,0.0,0.0,0.0,-0.128134414554,-0.172794088721,-9.89415454865,-0.0341780856252,0.00238707382232,0.0246493071318,0.0,0.0
2020/02/28/11:32:58.194522,533,1582911178,194432365,vectornav,1266946396.18,0.0,0.0,0.0,0.0473663471639,-0.0745507180691,-10.8907117844,-0.0180971175432,-0.00146017037332,0.0226287767291,0.0,0.0
2020/02/28/11:32:58.214457,534,1582911178,214409000,vectornav,1266946396.2,0.0,0.0,0.0,-0.00550063885748,-0.297185599804,-9.60029602051,0.0317980758846,0.00884191319346,0.0216324720532,0.0,0.0
2020/02/28/11:32:58.234504,535,1582911178,234427676,vectornav,1266946396.22,0.0,0.0,0.0,0.0326818004251,-0.0151278618723,-9.62509346008,-0.0383341312408,0.00738207018003,0.0227038767189,0.0,0.0
2020/02/28/11:32:58.254474,536,1582911178,254434073,vectornav,1266946396.24,0.0,0.0,0.0,-0.120455294847,-0.289799779654,-10.3727750778,-0.00168837432284,0.000798807479441,0.0233067497611,0.0,0.0
2020/02/28/11:32:58.274479,537,1582911178,274394489,vectornav,1266946396.26,0.0,0.0,0.0,-0.116975218058,-0.122018650174,-9.37070178986,0.0558429285884,0.00273093068972,0.0240243263543,0.0,0.0
2020/02/28/11:32:58.294466,538,1582911178,294426413,vectornav,1266946396.28,0.0,0.0,0.0,-0.143181651831,-0.174964636564,-9.16510009766,-0.0160406623036,0.0128251109272,0.0239567048848,0.0,0.0
2020/02/28/11:32:58.314487,539,1582911178,314405836,vectornav,1266946396.3,0.0,0.0,0.0,-0.296106398106,-0.076595723629,-10.0381860733,-0.00687050819397,0.00543745327741,0.0199271366,0.0,0.0
2020/02/28/11:32:58.334399,540,1582911178,334331826,vectornav,1266946396.32,0.0,0.0,0.0,-0.259275972843,0.075081564486,-9.5443277359,0.056041687727,-0.00059707602486,0.0223409160972,0.0,0.0
2020/02/28/11:32:58.354408,541,1582911178,354339665,vectornav,1266946396.34,0.0,0.0,0.0,-0.325482964516,0.147952154279,-9.29936218262,0.01707553491,-0.00212007993832,0.0218970999122,0.0,0.0
2020/02/28/11:32:58.374410,542,1582911178,374327916,vectornav,1266946396.36,0.0,0.0,0.0,-0.427586615086,-0.0750307813287,-9.85362815857,0.000550988363102,-0.00595132866874,0.0209792591631,0.0,0.0
2020/02/28/11:32:58.394396,543,1582911178,394343494,vectornav,1266946396.38,0.0,0.0,0.0,0.0290800947696,-0.397506892681,-10.2821798325,0.0125168096274,-0.00265464233235,0.0183368995786,0.0,0.0
2020/02/28/11:32:58.414404,544,1582911178,414354632,vectornav,1266946396.4,0.0,0.0,0.0,-0.137487977743,0.0485478341579,-9.8114233017,0.0480616725981,0.00155111635104,0.0182577222586,0.0,0.0
2020/02/28/11:32:58.434399,545,1582911178,434352811,vectornav,1266946396.42,0.0,0.0,0.0,-0.208998069167,-0.151018768549,-9.95449733734,0.0094780549407,-0.00184192834422,0.020014224574,0.0,0.0
2020/02/28/11:32:58.454372,546,1582911178,454321515,vectornav,1266946396.44,0.0,0.0,0.0,-0.106323964894,-0.208943098783,-10.2093706131,0.0367086231709,0.000405232887715,0.0170109495521,0.0,0.0
2020/02/28/11:32:58.474417,547,1582911178,474357252,vectornav,1266946396.46,0.0,0.0,0.0,-0.258107066154,0.0683220401406,-9.3538274765,0.0329767875373,0.012472614646,0.0181585159153,0.0,0.0
2020/02/28/11:32:58.494393,548,1582911178,494311577,vectornav,1266946396.48,0.0,0.0,0.0,-0.215448319912,-0.268931895494,-9.6419801712,-0.0397069938481,0.00693097803742,0.0192412026227,0.0,0.0
2020/02/28/11:32:58.514316,549,1582911178,514253873,vectornav,1266946396.5,0.0,0.0,0.0,-0.0736948028207,-0.140794575214,-9.92218112946,0.0209318194538,0.0106656989083,0.0159836765379,0.0,0.0
2020/02/28/11:32:58.534384,550,1582911178,534261486,vectornav,1266946396.52,0.0,0.0,0.0,-0.209967136383,-0.448504567146,-8.82526874542,-0.000244246562943,0.00495593762025,0.0165702961385,0.0,0.0
2020/02/28/11:32:58.554361,551,1582911178,554287697,vectornav,1266946396.54,0.0,0.0,0.0,-0.231622368097,-0.368202894926,-9.85341358185,-0.0084085855633,-0.00156694417819,0.0153521001339,0.0,0.0
2020/02/28/11:32:58.574336,552,1582911178,574285876,vectornav,1266946396.56,0.0,0.0,0.0,-0.148186996579,-0.0814390107989,-9.0989408493,0.059830673039,-0.0102779567242,0.0152161503211,0.0,0.0
2020/02/28/11:32:58.594326,553,1582911178,594263053,vectornav,1266946396.58,0.0,0.0,0.0,-0.349659472704,-0.827932476997,-8.66648483276,-0.00940963439643,-0.00759357679635,0.0136164138094,0.0,0.0
2020/02/28/11:32:58.614341,554,1582911178,614298323,vectornav,1266946396.6,0.0,0.0,0.0,0.000867877155542,-0.320002704859,-10.893289566,0.00819254666567,-0.0126709844917,0.0111778639257,0.0,0.0
2020/02/28/11:32:58.634296,555,1582911178,634237632,vectornav,1266946396.62,0.0,0.0,0.0,-0.204021736979,-0.23571407795,-8.97610282898,0.0724285170436,-0.0141694238409,0.00936404895037,0.0,0.0
2020/02/28/11:32:58.654278,556,1582911178,654221857,vectornav,1266946396.64,0.0,0.0,0.0,0.0253204703331,0.0375076979399,-8.78922939301,-0.0245036687702,-0.00789612811059,0.0126482089981,0.0,0.0
2020/02/28/11:32:58.674238,557,1582911178,674206109,vectornav,1266946396.66,0.0,0.0,0.0,-0.0549421198666,-0.300737112761,-10.5077581406,-0.0177416969091,-0.00968480855227,0.0107882646844,0.0,0.0
2020/02/28/11:32:58.694282,558,1582911178,694228389,vectornav,1266946396.68,0.0,0.0,0.0,-0.214181318879,0.0159369893372,-9.44541454315,0.0468337908387,-0.0190425608307,0.0114243589342,0.0,0.0
2020/02/28/11:32:58.714257,559,1582911178,714216697,vectornav,1266946396.7,0.0,0.0,0.0,0.0254542194307,-0.291462153196,-9.29372501373,-0.00240202341229,-0.0159161929041,0.0117749525234,0.0,0.0
2020/02/28/11:32:58.734315,560,1582911178,734232408,vectornav,1266946396.72,0.0,0.0,0.0,-0.188552379608,-0.592456221581,-9.99304485321,-0.0342323966324,-0.00983057171106,0.0128117268905,0.0,0.0
2020/02/28/11:32:58.754292,561,1582911178,754192674,vectornav,1266946396.74,0.0,0.0,0.0,0.00173973478377,-0.348990410566,-10.0891494751,0.0289085619152,-0.010235702619,0.0136116081849,0.0,0.0
2020/02/28/11:32:58.774266,562,1582911178,774213733,vectornav,1266946396.76,0.0,0.0,0.0,-0.223309904337,-0.366853863001,-9.49257278442,0.0130740497261,-0.00660313246772,0.0124089280143,0.0,0.0
2020/02/28/11:32:58.794202,563,1582911178,794168266,vectornav,1266946396.78,0.0,0.0,0.0,-0.222250312567,-0.679285407066,-10.2067260742,-0.0312367156148,-0.00538485171273,0.00915070064366,0.0,0.0
2020/02/28/11:32:58.814263,564,1582911178,814225297,vectornav,1266946396.8,0.0,0.0,0.0,0.115367144346,-0.474613577127,-10.4897689819,0.0310925804079,0.002575176768,0.0105934692547,0.0,0.0
2020/02/28/11:32:58.834235,565,1582911178,834188033,vectornav,1266946396.82,0.0,0.0,0.0,-0.184625387192,-0.00419415719807,-9.36038398743,0.0301711931825,-0.00167347863317,0.00789343845099,0.0,0.0
2020/02/28/11:32:58.854221,566,1582911178,854167382,vectornav,1266946396.84,0.0,0.0,0.0,-0.181875348091,0.0155588798225,-9.71340370178,0.00482394499704,-0.00684029050171,0.00813563261181,0.0,0.0
2020/02/28/11:32:58.874175,567,1582911178,874133561,vectornav,1266946396.86,0.0,0.0,0.0,0.083427041769,-0.548508524895,-9.810546875,-0.00656903302297,0.000986902974546,0.00688774231821,0.0,0.0
2020/02/28/11:32:58.894220,568,1582911178,894176651,vectornav,1266946396.88,0.0,0.0,0.0,-0.29126188159,-0.353165984154,-9.92514610291,0.00228864140809,-0.00482205208391,0.00534600205719,0.0,0.0
2020/02/28/11:32:58.914198,569,1582911178,914165443,vectornav,1266946396.9,0.0,0.0,0.0,-0.0990416482091,-0.172363698483,-9.59342098236,0.00912580825388,-0.0155848972499,0.00440907198936,0.0,0.0
2020/02/28/11:32:58.934236,570,1582911178,934160272,vectornav,1266946396.92,0.0,0.0,0.0,-0.194956943393,-0.464778214693,-9.34881305695,-0.0297787990421,-0.00401758169755,0.00371809210628,0.0,0.0
2020/02/28/11:32:58.954209,571,1582911178,954165026,vectornav,1266946396.94,0.0,0.0,0.0,-0.158738687634,-0.527437448502,-10.1238384247,-0.023060457781,-0.011350825429,0.000953807495534,0.0,0.0
2020/02/28/11:32:58.974205,572,1582911178,974137333,vectornav,1266946396.96,0.0,0.0,0.0,-0.0348668247461,-0.892321884632,-10.0828351974,-0.00507423887029,-0.0148135274649,-0.00235221162438,0.0,0.0
2020/02/28/11:32:58.994195,573,1582911178,994116136,vectornav,1266946396.98,0.0,0.0,0.0,-0.0725706368685,-0.983151912689,-9.94823169708,-0.0142678515986,0.000451752915978,-0.0054288180545,0.0,0.0
2020/02/28/11:32:59.014215,574,1582911179,14101676,vectornav,1266946397.0,0.0,0.0,0.0,-0.178329855204,-0.533380508423,-10.0991411209,-0.0144493319094,-0.00838677957654,-0.00574612896889,0.0,0.0
2020/02/28/11:32:59.034245,575,1582911179,34169811,vectornav,1266946397.02,0.0,0.0,0.0,-0.114371210337,-0.435819596052,-9.80077266693,0.00314922677353,-0.00524576706812,-0.0054817777127,0.0,0.0
2020/02/28/11:32:59.054200,576,1582911179,54157471,vectornav,1266946397.04,0.0,0.0,0.0,-0.237841278315,-0.255612313747,-10.2289638519,-0.00484970957041,0.00415497459471,-0.00402343925089,0.0,0.0
2020/02/28/11:32:59.074160,577,1582911179,74129863,vectornav,1266946397.06,0.0,0.0,0.0,-0.405762881041,-0.117885865271,-10.2413892746,0.0201555192471,-0.000589119270444,-0.00248289853334,0.0,0.0
2020/02/28/11:32:59.094280,578,1582911179,94110890,vectornav,1266946397.08,0.0,0.0,0.0,-0.315176039934,-0.118001021445,-9.74133205414,-0.0022681534756,0.00225780624896,-0.000532938167453,0.0,0.0
2020/02/28/11:32:59.114097,579,1582911179,114064366,vectornav,1266946397.1,0.0,0.0,0.0,-0.367329031229,-0.163356021047,-10.0545186996,-0.0427552759647,0.0135390404612,0.00183033104986,0.0,0.0
2020/02/28/11:32:59.134147,580,1582911179,134063376,vectornav,1266946397.12,0.0,0.0,0.0,-0.200696259737,-0.341521143913,-10.2075643539,-0.0118859438226,0.0102810133249,-0.000714169815183,0.0,0.0
2020/02/28/11:32:59.154088,581,1582911179,154038112,vectornav,1266946397.14,0.0,0.0,0.0,-0.257004290819,-0.458562642336,-9.46814727783,-0.0243219472468,0.00467713642865,-0.00114298705012,0.0,0.0
2020/02/28/11:32:59.174185,582,1582911179,174102230,vectornav,1266946397.16,0.0,0.0,0.0,-0.0537750758231,-0.297640115023,-9.55991458893,-0.0111560486257,-0.00034740101546,-0.00259815249592,0.0,0.0
2020/02/28/11:32:59.194227,583,1582911179,194100259,vectornav,1266946397.18,0.0,0.0,0.0,-0.255914092064,-0.820192754269,-9.13072681427,-0.00552343158051,-0.00476515479386,-0.00499257724732,0.0,0.0
2020/02/28/11:32:59.214184,584,1582911179,214124505,vectornav,1266946397.2,0.0,0.0,0.0,-0.43280634284,-0.426002860069,-9.55851078033,-0.00595699157566,-0.0142095480114,-0.00566663686186,0.0,0.0
2020/02/28/11:32:59.234125,585,1582911179,234064545,vectornav,1266946397.22,0.0,0.0,0.0,-0.23565210402,-0.640750348568,-9.22325801849,0.015817694366,-0.0226770192385,-0.00952781736851,0.0,0.0
2020/02/28/11:32:59.254145,586,1582911179,254097024,vectornav,1266946397.24,0.0,0.0,0.0,-0.288000255823,-0.476099342108,-9.15873813629,-0.018214950338,-0.0069657722488,-0.0133339101449,0.0,0.0
2020/02/28/11:32:59.274091,587,1582911179,274046825,vectornav,1266946397.26,0.0,0.0,0.0,-0.435244232416,0.0243906490505,-9.9708108902,-0.0250181034207,-0.0224663726985,-0.0118758510798,0.0,0.0
2020/02/28/11:32:59.294198,588,1582911179,294067566,vectornav,1266946397.28,0.0,0.0,0.0,-0.206763058901,-0.481010705233,-9.6824426651,0.0304548088461,-0.0293777696788,-0.0110506843776,0.0,0.0
2020/02/28/11:32:59.314047,589,1582911179,314007815,vectornav,1266946397.3,0.0,0.0,0.0,-0.348347276449,-0.158990442753,-9.90817737579,-0.00459723453969,-0.0109911654145,-0.0124402437359,0.0,0.0
2020/02/28/11:32:59.334124,590,1582911179,334073639,vectornav,1266946397.32,0.0,0.0,0.0,-0.204564496875,-0.0225014593452,-10.2479629517,0.000832432531752,-0.0207480527461,-0.0104674566537,0.0,0.0
2020/02/28/11:32:59.354118,591,1582911179,354076966,vectornav,1266946397.34,0.0,0.0,0.0,-0.110909275711,-0.110319279134,-9.56952571869,0.00804181955755,-0.016691185534,-0.0104752648622,0.0,0.0
2020/02/28/11:32:59.374092,592,1582911179,374039165,vectornav,1266946397.36,0.0,0.0,0.0,-0.36233523488,-0.182457745075,-9.95204257965,-0.0239537805319,-0.0144160278141,-0.0113843958825,0.0,0.0
2020/02/28/11:32:59.394112,593,1582911179,394061348,vectornav,1266946397.38,0.0,0.0,0.0,-0.157394334674,-0.609132528305,-10.0481872559,0.024621726945,-0.0191733129323,-0.0135700525716,0.0,0.0
2020/02/28/11:32:59.414038,594,1582911179,413999856,vectornav,1266946397.4,0.0,0.0,0.0,-0.270968139172,-0.700020074844,-9.68421459198,-0.000320222228765,-0.00777473067865,-0.0147323282436,0.0,0.0
2020/02/28/11:32:59.434017,595,1582911179,433967869,vectornav,1266946397.42,0.0,0.0,0.0,-0.39592140913,-0.421148329973,-9.96228885651,-0.0182172823697,-0.012475354597,-0.0159128252417,0.0,0.0
2020/02/28/11:32:59.454101,596,1582911179,454056049,vectornav,1266946397.44,0.0,0.0,0.0,-0.254774808884,-0.726373076439,-9.86690044403,0.0226813144982,-0.00990895554423,-0.0165642276406,0.0,0.0
2020/02/28/11:32:59.474125,597,1582911179,474038710,vectornav,1266946397.46,0.0,0.0,0.0,-0.496405720711,-0.55878931284,-9.55919361115,2.69497395493e-05,-0.0124942939728,-0.0181596651673,0.0,0.0
2020/02/28/11:32:59.494076,598,1582911179,493993328,vectornav,1266946397.48,0.0,0.0,0.0,-0.239242807031,-0.378806918859,-9.95963668823,0.0354220941663,-0.0199336484075,-0.0194651484489,0.0,0.0
2020/02/28/11:32:59.514090,599,1582911179,513968268,vectornav,1266946397.5,0.0,0.0,0.0,-0.212193712592,-0.12737582624,-9.58013439178,0.0592450723052,-0.0190171040595,-0.0195953845978,0.0,0.0
2020/02/28/11:32:59.534270,600,1582911179,534110516,vectornav,1266946397.52,0.0,0.0,0.0,-0.39748030901,-0.104951187968,-9.6205034256,0.024779856205,-0.0146437268704,-0.0179222617298,0.0,0.0
2020/02/28/11:32:59.553974,601,1582911179,553927977,vectornav,1266946397.54,0.0,0.0,0.0,-0.285999774933,-0.425442755222,-10.2625551224,-0.00198802119121,-0.0131608266383,-0.0172018315643,0.0,0.0
2020/02/28/11:32:59.574004,602,1582911179,573936678,vectornav,1266946397.56,0.0,0.0,0.0,-0.35339859128,-0.138045728207,-10.0859956741,0.0347861945629,-0.0096801687032,-0.0138865225017,0.0,0.0
2020/02/28/11:32:59.594019,603,1582911179,593967932,vectornav,1266946397.58,0.0,0.0,0.0,-0.160493507981,0.406420379877,-9.59072494507,0.0310546718538,-0.0107947476208,-0.0122924353927,0.0,0.0
2020/02/28/11:32:59.614082,604,1582911179,614024929,vectornav,1266946397.6,0.0,0.0,0.0,-0.361111044884,-0.228166669607,-9.68748474121,-0.00055218389025,-0.0113961957395,-0.0128632010892,0.0,0.0
2020/02/28/11:32:59.633974,605,1582911179,633927920,vectornav,1266946397.62,0.0,0.0,0.0,-0.179840669036,-0.465733498335,-10.2739105225,0.00141910952516,-0.001854182221,-0.0148602761328,0.0,0.0
2020/02/28/11:32:59.653952,606,1582911179,653895212,vectornav,1266946397.64,0.0,0.0,0.0,-0.235797211528,-0.797367990017,-9.36641311646,0.00181820429862,0.0066424915567,-0.0185707416385,0.0,0.0
2020/02/28/11:32:59.673948,607,1582911179,673896026,vectornav,1266946397.66,0.0,0.0,0.0,-0.301902890205,-0.516795039177,-9.87016487122,-0.0323942936957,-0.00291299400851,-0.0191704556346,0.0,0.0
2020/02/28/11:32:59.694087,608,1582911179,693991086,vectornav,1266946397.68,0.0,0.0,0.0,-0.315386027098,-1.02850365639,-10.202009201,0.0165702831,-0.00196274742484,-0.0202514436096,0.0,0.0
2020/02/28/11:32:59.713966,609,1582911179,713918094,vectornav,1266946397.7,0.0,0.0,0.0,-0.455533891916,-0.631452620029,-9.33015060425,0.00348216434941,0.0108964443207,-0.0242112465203,0.0,0.0
2020/02/28/11:32:59.733941,610,1582911179,733881351,vectornav,1266946397.72,0.0,0.0,0.0,-0.415157854557,-0.594279706478,-9.38668251038,-0.0406778678298,0.00719164311886,-0.0273219309747,0.0,0.0
2020/02/28/11:32:59.753929,611,1582911179,753872353,vectornav,1266946397.74,0.0,0.0,0.0,-0.302361488342,-1.13975214958,-9.96117782593,-0.0385001003742,0.00702939229086,-0.0293669439852,0.0,0.0
2020/02/28/11:32:59.773892,612,1582911179,773842574,vectornav,1266946397.76,0.0,0.0,0.0,-0.336701899767,-0.524026989937,-9.6628780365,-0.0341515354812,0.00143877300434,-0.0295022577047,0.0,0.0
2020/02/28/11:32:59.793897,613,1582911179,793846106,vectornav,1266946397.78,0.0,0.0,0.0,-0.41480204463,-0.20265224576,-9.52360153198,0.0126959700137,-0.014804141596,-0.0283507145941,0.0,0.0
2020/02/28/11:32:59.813936,614,1582911179,813872805,vectornav,1266946397.8,0.0,0.0,0.0,-0.167557120323,-0.541782557964,-9.13133621216,-0.0270476397127,-0.00631906837225,-0.0254460088909,0.0,0.0
2020/02/28/11:32:59.833910,615,1582911179,833839463,vectornav,1266946397.82,0.0,0.0,0.0,-0.455061942339,-0.339146286249,-9.97708511353,-0.0694764554501,-0.00413564033806,-0.0250784326345,0.0,0.0
2020/02/28/11:32:59.853963,616,1582911179,853910061,vectornav,1266946397.84,0.0,0.0,0.0,-0.359113126993,-0.330762177706,-10.3458824158,0.00229679956101,-0.0254450626671,-0.0232941489667,0.0,0.0
