time,.header.seq,.header.stamp.secs,.header.stamp.nsecs,.header.frame_id,.gps_time,.Mag.x,.Mag.y,.Mag.z,.Accel.x,.Accel.y,.Accel.z,.Gyro.x,.Gyro.y,.Gyro.z,.Temp,.Pressure
2019/02/01/15:55:50.504149,1626,1549058150,503962754,imu,1233093368.89,0.0,0.0,0.0,0.00139799818862,-0.000484253512695,0.00287776906043,-0.285550266504,0.211569726467,-9.82318305969,0.0,0.0
2019/02/01/15:55:50.524099,1627,1549058150,523907958,imu,1233093368.91,0.0,0.0,0.0,-0.00075745000504,0.000205610631383,0.00224279565737,-0.252591758966,0.182099372149,-9.76060676575,0.0,0.0
2019/02/01/15:55:50.544067,1628,1549058150,543989037,imu,1233093368.93,0.0,0.0,0.0,4.81612805743e-05,0.000796324224211,0.0019244691357,-0.293836981058,0.172494933009,-9.8112449646,0.0,0.0
2019/02/01/15:55:50.564206,1629,1549058150,564013684,imu,1233093368.95,0.0,0.0,0.0,-0.000345837499481,-0.000670482986607,0.00106541439891,-0.285205096006,0.180278345942,-9.80379486084,0.0,0.0
2019/02/01/15:55:50.584448,1630,1549058150,584019368,imu,1233093368.97,0.0,0.0,0.0,0.00132141122594,8.85818735696e-05,0.00168101908639,-0.281883656979,0.220708489418,-9.76905822754,0.0,0.0
2019/02/01/15:55:50.604088,1631,1549058150,603947266,imu,1233093368.99,0.0,0.0,0.0,-5.46888913959e-05,-0.000195759610506,0.00263353809714,-0.27288132906,0.206641584635,-9.80182361603,0.0,0.0
2019/02/01/15:55:50.624076,1632,1549058150,623958633,imu,1233093369.01,0.0,0.0,0.0,-0.00101784605067,-0.000359320722055,0.00161981675774,-0.262910157442,0.207925871015,-9.81348800659,0.0,0.0
2019/02/01/15:55:50.644039,1633,1549058150,643854821,imu,1233093369.03,0.0,0.0,0.0,-0.000156105437782,0.000913093215786,0.00156860239804,-0.253104716539,0.187841325998,-9.8125667572,0.0,0.0
2019/02/01/15:55:50.663907,1634,1549058150,663782859,imu,1233093369.05,0.0,0.0,0.0,-0.000202258699574,-0.000244817521889,0.00238916696981,-0.275436073542,0.185152113438,-9.80609607697,0.0,0.0
2019/02/01/15:55:50.684968,1635,1549058150,683938857,imu,1233093369.07,0.0,0.0,0.0,0.00123754132073,-0.000830485951155,0.00263594696298,-0.282896280289,0.200478702784,-9.79046058655,0.0,0.0
2019/02/01/15:55:50.703894,1636,1549058150,703729394,imu,1233093369.09,0.0,0.0,0.0,-0.00036746225669,0.000181737210369,0.00216317223385,-0.302195936441,0.183584958315,-9.79790592194,0.0,0.0
2019/02/01/15:55:50.724166,1637,1549058150,723592744,imu,1233093369.11,0.0,0.0,0.0,-0.000809782126453,-0.000238189822994,0.00230416236445,-0.301907032728,0.210574537516,-9.78517723083,0.0,0.0
2019/02/01/15:55:50.743664,1638,1549058150,743523797,imu,1233093369.13,0.0,0.0,0.0,0.000436665839516,-0.000686833052896,0.00198243511841,-0.265185803175,0.214995443821,-9.79616355896,0.0,0.0
2019/02/01/15:55:50.763747,1639,1549058150,763565147,imu,1233093369.15,0.0,0.0,0.0,-0.000867953931447,-9.3572656624e-05,0.00195705890656,-0.256410360336,0.231613740325,-9.7918806076,0.0,0.0
2019/02/01/15:55:50.783722,1640,1549058150,783506942,imu,1233093369.17,0.0,0.0,0.0,0.00101934955455,-0.00112645304762,0.00209235586226,-0.277479469776,0.205914691091,-9.79123783112,0.0,0.0
2019/02/01/15:55:50.803681,1641,1549058150,803542037,imu,1233093369.19,0.0,0.0,0.0,7.33942724764e-05,-0.00109422509558,0.00138643104583,-0.277322769165,0.204223915935,-9.78235626221,0.0,0.0
2019/02/01/15:55:50.823680,1642,1549058150,823553759,imu,1233093369.21,0.0,0.0,0.0,0.000667941756546,-0.000831812852994,0.00245511624962,-0.282049655914,0.207983151078,-9.79751491547,0.0,0.0
2019/02/01/15:55:50.843623,1643,1549058150,843471485,imu,1233093369.23,0.0,0.0,0.0,0.000607275520451,-0.000619070895482,0.00201962143183,-0.288211733103,0.216056674719,-9.77532482147,0.0,0.0
2019/02/01/15:55:50.863755,1644,1549058150,863605585,imu,1233093369.25,0.0,0.0,0.0,-0.000648080604151,0.000571986660361,0.00276251044124,-0.251440495253,0.171896323562,-9.81748485565,0.0,0.0
2019/02/01/15:55:50.883576,1645,1549058150,883394297,imu,1233093369.27,0.0,0.0,0.0,0.00126517482568,-0.00168198265601,0.00161921605468,-0.273417979479,0.211748495698,-9.82853221893,0.0,0.0
2019/02/01/15:55:50.903546,1646,1549058150,903370568,imu,1233093369.29,0.0,0.0,0.0,-0.000214242900256,-0.000802216934972,0.00145118031651,-0.275580376387,0.221501082182,-9.80871677399,0.0,0.0
2019/02/01/15:55:50.923372,1647,1549058150,923231094,imu,1233093369.31,0.0,0.0,0.0,0.00135479972232,0.00104117020965,0.00231914687902,-0.276191592216,0.204372569919,-9.77704906464,0.0,0.0
2019/02/01/15:55:50.943465,1648,1549058150,943242049,imu,1233093369.33,0.0,0.0,0.0,-0.00160243804567,-1.03634956758e-05,0.00228113634512,-0.267835378647,0.224968597293,-9.77980136871,0.0,0.0
2019/02/01/15:55:50.963472,1649,1549058150,963265436,imu,1233093369.35,0.0,0.0,0.0,0.000676676863804,-0.0010287713958,0.00231300853193,-0.270657718182,0.185347348452,-9.80677127838,0.0,0.0
2019/02/01/15:55:50.983291,1650,1549058150,983192962,imu,1233093369.37,0.0,0.0,0.0,-0.000335236924002,0.000541242770851,0.00320869171992,-0.291883736849,0.195067256689,-9.80441570282,0.0,0.0
2019/02/01/15:55:51.003292,1651,1549058151,3140498,imu,1233093369.39,0.0,0.0,0.0,-0.000125386781292,-0.00121824711096,0.00308675505221,-0.263782680035,0.196841806173,-9.78987598419,0.0,0.0
2019/02/01/15:55:51.024208,1652,1549058151,24087585,imu,1233093369.41,0.0,0.0,0.0,0.000253765669186,-0.00181890709791,0.00274184532464,-0.29182100296,0.20687456429,-9.77969837189,0.0,0.0
2019/02/01/15:55:51.044247,1653,1549058151,44132406,imu,1233093369.43,0.0,0.0,0.0,-0.0001868493855,0.000743754848372,0.00226569920778,-0.292354643345,0.189530968666,-9.83801174164,0.0,0.0
2019/02/01/15:55:51.064289,1654,1549058151,64162056,imu,1233093369.45,0.0,0.0,0.0,8.10238707345e-05,0.000367094791727,0.00124865816906,-0.284021914005,0.204602956772,-9.78325939178,0.0,0.0
2019/02/01/15:55:51.084287,1655,1549058151,84160127,imu,1233093369.47,0.0,0.0,0.0,0.00160788849462,-0.00129114475567,0.00226518558338,-0.289033174515,0.205171912909,-9.80345249176,0.0,0.0
2019/02/01/15:55:51.104245,1656,1549058151,104119236,imu,1233093369.49,0.0,0.0,0.0,-0.00024733756436,-0.000460069655674,0.00157487392426,-0.270819872618,0.191235557199,-9.81723308563,0.0,0.0
2019/02/01/15:55:51.124144,1657,1549058151,124037375,imu,1233093369.51,0.0,0.0,0.0,2.53937905654e-05,-0.000765688717365,0.00197757966816,-0.268999010324,0.191177949309,-9.80585575104,0.0,0.0
2019/02/01/15:55:51.144116,1658,1549058151,144009381,imu,1233093369.53,0.0,0.0,0.0,-0.00149239017628,0.000699879019521,0.00207645026967,-0.277567356825,0.20096193254,-9.77289009094,0.0,0.0
2019/02/01/15:55:51.164223,1659,1549058151,164082620,imu,1233093369.55,0.0,0.0,0.0,0.000521885696799,0.000528740463778,0.00203357404098,-0.273677408695,0.216218963265,-9.82353591919,0.0,0.0
2019/02/01/15:55:51.184492,1660,1549058151,184270407,imu,1233093369.57,0.0,0.0,0.0,-0.00167468190193,-0.000263545720372,0.00335351610556,-0.27218323946,0.208741351962,-9.82467460632,0.0,0.0
2019/02/01/15:55:51.204108,1661,1549058151,203961311,imu,1233093369.59,0.0,0.0,0.0,0.00125424785074,-7.93496437836e-05,0.00246536266059,-0.295086979866,0.19866630435,-9.79374408722,0.0,0.0
2019/02/01/15:55:51.224217,1662,1549058151,224022707,imu,1233093369.61,0.0,0.0,0.0,0.000281543674646,-0.000388670392567,0.00246389955282,-0.276817649603,0.183962792158,-9.82083034515,0.0,0.0
2019/02/01/15:55:51.244051,1663,1549058151,243858171,imu,1233093369.63,0.0,0.0,0.0,-0.00180915789679,7.54502834752e-05,0.00340450601652,-0.288933366537,0.174883514643,-9.80274772644,0.0,0.0
2019/02/01/15:55:51.264088,1664,1549058151,263933584,imu,1233093369.65,0.0,0.0,0.0,0.00101919844747,-0.00149578764103,0.0022477353923,-0.257468253374,0.205415531993,-9.7637348175,0.0,0.0
2019/02/01/15:55:51.284036,1665,1549058151,283923632,imu,1233093369.67,0.0,0.0,0.0,-0.000412825524108,-0.000471021223348,0.0019344445318,-0.260212540627,0.188291728497,-9.79344940186,0.0,0.0
2019/02/01/15:55:51.304083,1666,1549058151,303843519,imu,1233093369.69,0.0,0.0,0.0,0.00112292217091,0.000550745113287,0.00197885930538,-0.257655262947,0.187023237348,-9.76419258118,0.0,0.0
2019/02/01/15:55:51.323925,1667,1549058151,323730851,imu,1233093369.71,0.0,0.0,0.0,-0.00181609718129,-0.000262746674707,0.00141501193866,-0.272550880909,0.224783420563,-9.82532119751,0.0,0.0
2019/02/01/15:55:51.343948,1668,1549058151,343644788,imu,1233093369.73,0.0,0.0,0.0,0.0010537726339,-3.97085386794e-05,0.00190061656758,-0.275974065065,0.221616476774,-9.78841495514,0.0,0.0
2019/02/01/15:55:51.363792,1669,1549058151,363693361,imu,1233093369.75,0.0,0.0,0.0,0.00145201548003,-0.000571526121348,0.00248160399497,-0.28794619441,0.210936799645,-9.80041885376,0.0,0.0
2019/02/01/15:55:51.383967,1670,1549058151,383720229,imu,1233093369.77,0.0,0.0,0.0,0.00104163819924,-0.000342072162312,0.0031582606025,-0.272086650133,0.183849990368,-9.7984085083,0.0,0.0
2019/02/01/15:55:51.403847,1671,1549058151,403705463,imu,1233093369.79,0.0,0.0,0.0,0.00223743240349,4.56817797385e-05,0.00246893521398,-0.256513088942,0.207088276744,-9.78055381775,0.0,0.0
2019/02/01/15:55:51.423757,1672,1549058151,423606503,imu,1233093369.81,0.0,0.0,0.0,-0.000341712322552,0.000118563621072,0.00234850030392,-0.260010153055,0.207812711596,-9.81660079956,0.0,0.0
2019/02/01/15:55:51.443760,1673,1549058151,443619024,imu,1233093369.83,0.0,0.0,0.0,0.00223945057951,-0.000627907342277,0.00122526055202,-0.278867155313,0.211109697819,-9.78022003174,0.0,0.0
2019/02/01/15:55:51.463820,1674,1549058151,463699992,imu,1233093369.85,0.0,0.0,0.0,0.000581094180234,-0.00110658246558,0.00217386381701,-0.292752057314,0.201601043344,-9.82162475586,0.0,0.0
2019/02/01/15:55:51.483767,1675,1549058151,483616941,imu,1233093369.87,0.0,0.0,0.0,0.0020152463112,-0.000980808050372,0.0015075635165,-0.252645075321,0.19449724257,-9.80476856232,0.0,0.0
2019/02/01/15:55:51.503840,1676,1549058151,503710218,imu,1233093369.89,0.0,0.0,0.0,0.000791619706433,-0.000875654397532,0.00167754478753,-0.28561425209,0.205564931035,-9.77269363403,0.0,0.0
2019/02/01/15:55:51.523499,1677,1549058151,523389871,imu,1233093369.91,0.0,0.0,0.0,9.91879060166e-05,9.2586822575e-05,0.00258668418974,-0.307849913836,0.196284666657,-9.7846698761,0.0,0.0
2019/02/01/15:55:51.543573,1678,1549058151,543413179,imu,1233093369.93,0.0,0.0,0.0,-0.000619300641119,-0.000402442761697,0.00209420546889,-0.295525670052,0.199609711766,-9.79039382935,0.0,0.0
2019/02/01/15:55:51.563893,1679,1549058151,563644970,imu,1233093369.95,0.0,0.0,0.0,-0.000335494987667,0.000136806105729,0.0019531683065,-0.259374529123,0.158533468843,-9.80854034424,0.0,0.0
2019/02/01/15:55:51.583727,1680,1549058151,583434602,imu,1233093369.97,0.0,0.0,0.0,-0.000180239701876,5.55373262614e-05,0.00241650268435,-0.289296507835,0.192268043756,-9.82387733459,0.0,0.0
2019/02/01/15:55:51.603595,1681,1549058151,603447924,imu,1233093369.99,0.0,0.0,0.0,-0.00115262204781,0.000961323385127,0.00183753063902,-0.271235287189,0.177794113755,-9.8196182251,0.0,0.0
2019/02/01/15:55:51.623498,1682,1549058151,623341326,imu,1233093370.01,0.0,0.0,0.0,-0.000254545768257,0.000607617199421,0.00138908484951,-0.262093573809,0.208398610353,-9.82323646545,0.0,0.0
2019/02/01/15:55:51.643378,1683,1549058151,643254625,imu,1233093370.03,0.0,0.0,0.0,-0.000344706058968,0.000319168437272,0.00339239183813,-0.281055569649,0.218064934015,-9.80367660522,0.0,0.0
2019/02/01/15:55:51.663390,1684,1549058151,663236089,imu,1233093370.05,0.0,0.0,0.0,-4.25855105277e-05,-0.000253685284406,0.00119769293815,-0.276453971863,0.20709683001,-9.78985786438,0.0,0.0
2019/02/01/15:55:51.683813,1685,1549058151,683326063,imu,1233093370.07,0.0,0.0,0.0,-0.000441000564024,0.00178570358548,0.00289733707905,-0.266095966101,0.204824432731,-9.80225372314,0.0,0.0
2019/02/01/15:55:51.704376,1686,1549058151,704252169,imu,1233093370.09,0.0,0.0,0.0,-0.000851784599945,-4.94095729664e-05,0.00368921970949,-0.274130046368,0.208540603518,-9.75670433044,0.0,0.0
2019/02/01/15:55:51.724591,1687,1549058151,724170193,imu,1233093370.11,0.0,0.0,0.0,-0.000433896610048,0.000306856032694,0.00313789071515,-0.24967494607,0.210322797298,-9.79368209839,0.0,0.0
2019/02/01/15:55:51.744312,1688,1549058151,744159286,imu,1233093370.13,0.0,0.0,0.0,-0.00140940910205,0.000545942340977,0.00221805134788,-0.28200250864,0.195369318128,-9.80529022217,0.0,0.0
2019/02/01/15:55:51.764328,1689,1549058151,764200021,imu,1233093370.15,0.0,0.0,0.0,-0.000922804814763,0.00041022116784,0.00156441796571,-0.258008420467,0.222183838487,-9.76437473297,0.0,0.0
2019/02/01/15:55:51.785291,1690,1549058151,784309916,imu,1233093370.17,0.0,0.0,0.0,-0.000805359333754,-0.000295508827548,0.00270002707839,-0.254156470299,0.203912869096,-9.80725574493,0.0,0.0
2019/02/01/15:55:51.804369,1691,1549058151,804183797,imu,1233093370.19,0.0,0.0,0.0,-0.000496247899719,6.45849504508e-05,0.00181089434773,-0.26871034503,0.217472583055,-9.8014793396,0.0,0.0
2019/02/01/15:55:51.824923,1692,1549058151,824308898,imu,1233093370.21,0.0,0.0,0.0,0.00101704895496,0.00023093278287,0.00192193686962,-0.297032743692,0.213355913758,-9.79715633392,0.0,0.0
2019/02/01/15:55:51.844088,1693,1549058151,843916536,imu,1233093370.23,0.0,0.0,0.0,-0.000129977415781,-0.000798891298473,0.00234854826704,-0.281099379063,0.200412184,-9.77916049957,0.0,0.0
2019/02/01/15:55:51.864179,1694,1549058151,863961747,imu,1233093370.25,0.0,0.0,0.0,0.00162604509387,-0.00111407297663,0.00191198475659,-0.262715697289,0.195277437568,-9.81255435944,0.0,0.0
2019/02/01/15:55:51.884155,1695,1549058151,883995287,imu,1233093370.27,0.0,0.0,0.0,0.000759625225328,-0.000645647989586,0.00173910800368,-0.289191842079,0.193777427077,-9.83381462097,0.0,0.0
2019/02/01/15:55:51.904164,1696,1549058151,903924308,imu,1233093370.29,0.0,0.0,0.0,8.46803450258e-05,0.000294141529594,0.00211546802893,-0.255895704031,0.219263955951,-9.85258769989,0.0,0.0
2019/02/01/15:55:51.924039,1697,1549058151,923935346,imu,1233093370.31,0.0,0.0,0.0,0.00028243966517,0.000569418014493,0.00339307868853,-0.282561093569,0.213038638234,-9.79552459717,0.0,0.0
2019/02/01/15:55:51.944008,1698,1549058151,943765145,imu,1233093370.33,0.0,0.0,0.0,0.00157406367362,-0.000268876116024,0.00287212338299,-0.29243016243,0.206287845969,-9.806848526,0.0,0.0
2019/02/01/15:55:51.963831,1699,1549058151,963714839,imu,1233093370.35,0.0,0.0,0.0,0.000624399748631,0.000210037062061,0.00299136945978,-0.274266660213,0.212016448379,-9.80285549164,0.0,0.0
2019/02/01/15:55:51.983993,1700,1549058151,983841126,imu,1233093370.37,0.0,0.0,0.0,-0.00135559937917,0.000921275699511,0.00201732013375,-0.260328501463,0.19312402606,-9.7976808548,0.0,0.0
2019/02/01/15:55:52.003890,1701,1549058152,3765173,imu,1233093370.39,0.0,0.0,0.0,-9.34903800953e-05,-0.000466082012281,0.0027188109234,-0.276865690947,0.176221251488,-9.77958583832,0.0,0.0
2019/02/01/15:55:52.023856,1702,1549058152,23749130,imu,1233093370.41,0.0,0.0,0.0,0.000821895082481,-0.000564548536204,0.00225838692859,-0.26931142807,0.209902793169,-9.80543899536,0.0,0.0
2019/02/01/15:55:52.043911,1703,1549058152,43701946,imu,1233093370.43,0.0,0.0,0.0,0.000423826422775,0.000264958711341,0.00329652801156,-0.258055925369,0.184045985341,-9.78516197205,0.0,0.0
2019/02/01/15:55:52.063802,1704,1549058152,63624035,imu,1233093370.45,0.0,0.0,0.0,0.00073465181049,-0.000660956953652,0.00142997363582,-0.288456052542,0.179168820381,-9.82624435425,0.0,0.0
2019/02/01/15:55:52.083810,1705,1549058152,83608603,imu,1233093370.47,0.0,0.0,0.0,-0.000373222661437,-0.000712824403308,0.0022016428411,-0.268027991056,0.197642415762,-9.77966213226,0.0,0.0
2019/02/01/15:55:52.103708,1706,1549058152,103575818,imu,1233093370.49,0.0,0.0,0.0,-0.00164792430587,0.00121900881641,0.00250096293166,-0.268777728081,0.188014894724,-9.79273223877,0.0,0.0
2019/02/01/15:55:52.123678,1707,1549058152,123566247,imu,1233093370.51,0.0,0.0,0.0,-0.00180230895057,-0.000590386684053,0.00188918737695,-0.276618570089,0.211927443743,-9.81236839294,0.0,0.0
2019/02/01/15:55:52.143935,1708,1549058152,143700610,imu,1233093370.53,0.0,0.0,0.0,-0.000992987421341,-0.000224860094022,0.00207295781001,-0.270558029413,0.178568780422,-9.8053445816,0.0,0.0
2019/02/01/15:55:52.163540,1709,1549058152,163420140,imu,1233093370.55,0.0,0.0,0.0,-0.000626289984211,-0.000895416829735,0.0023825825192,-0.278220832348,0.19552449882,-9.84297370911,0.0,0.0
2019/02/01/15:55:52.183654,1710,1549058152,183436831,imu,1233093370.57,0.0,0.0,0.0,-0.000539248343557,-0.000218440545723,0.000730448868126,-0.289499431849,0.19460824132,-9.83052349091,0.0,0.0
2019/02/01/15:55:52.203621,1711,1549058152,203480294,imu,1233093370.59,0.0,0.0,0.0,0.000224304007133,-0.000955936382525,0.00340585084632,-0.258111536503,0.220188260078,-9.81518745422,0.0,0.0
2019/02/01/15:55:52.223597,1712,1549058152,223386796,imu,1233093370.61,0.0,0.0,0.0,-0.00127298780717,-0.000676361494698,0.00240611471236,-0.298884421587,0.196945607662,-9.78634929657,0.0,0.0
2019/02/01/15:55:52.243497,1713,1549058152,243373056,imu,1233093370.63,0.0,0.0,0.0,0.000423444260377,0.000342070561601,0.00187588715926,-0.291892379522,0.199223816395,-9.80409526825,0.0,0.0
2019/02/01/15:55:52.263440,1714,1549058152,263333385,imu,1233093370.65,0.0,0.0,0.0,0.000377413118258,-0.000183361087693,0.00299078179523,-0.280869960785,0.207131206989,-9.78304481506,0.0,0.0
2019/02/01/15:55:52.283533,1715,1549058152,283380568,imu,1233093370.67,0.0,0.0,0.0,0.00102901540231,-0.000676796014886,0.00170096708462,-0.297826558352,0.193985879421,-9.79832553864,0.0,0.0
2019/02/01/15:55:52.303477,1716,1549058152,303303477,imu,1233093370.69,0.0,0.0,0.0,0.000254388083704,-3.97276016884e-05,0.0013830345124,-0.267659217119,0.198563486338,-9.80914497375,0.0,0.0
2019/02/01/15:55:52.323460,1717,1549058152,323327772,imu,1233093370.71,0.0,0.0,0.0,-0.00046022888273,-0.000148161459947,0.00113498931751,-0.263396769762,0.209695100784,-9.78727912903,0.0,0.0
2019/02/01/15:55:52.343610,1718,1549058152,343365771,imu,1233093370.73,0.0,0.0,0.0,0.00127017870545,-0.00075949949678,0.00131626287475,-0.293822169304,0.201584637165,-9.7893409729,0.0,0.0
2019/02/01/15:55:52.363374,1719,1549058152,363246522,imu,1233093370.75,0.0,0.0,0.0,-0.000736132846214,-0.000892712560017,0.00294828973711,-0.268902957439,0.167506471276,-9.8390083313,0.0,0.0
2019/02/01/15:55:52.385442,1720,1549058152,385182120,imu,1233093370.77,0.0,0.0,0.0,-0.000242202397203,-0.000407609157264,0.0012783408165,-0.28382152319,0.201661095023,-9.77352046967,0.0,0.0
2019/02/01/15:55:52.403416,1721,1549058152,403280471,imu,1233093370.79,0.0,0.0,0.0,0.000254604266956,2.38072534557e-05,0.000836306251585,-0.2653221488,0.207943767309,-9.8048210144,0.0,0.0
2019/02/01/15:55:52.423325,1722,1549058152,423139933,imu,1233093370.81,0.0,0.0,0.0,0.0011558169499,0.000989467604086,0.00214478280395,-0.258358329535,0.209040120244,-9.79376125336,0.0,0.0
2019/02/01/15:55:52.444307,1723,1549058152,444212473,imu,1233093370.83,0.0,0.0,0.0,0.000385779247154,-0.000298854662105,0.00228238431737,-0.277363836765,0.205984815955,-9.80434131622,0.0,0.0
2019/02/01/15:55:52.464468,1724,1549058152,464331889,imu,1233093370.85,0.0,0.0,0.0,-0.000378428521799,-0.00032717231079,0.00157438032329,-0.270099073648,0.202351674438,-9.79246711731,0.0,0.0
2019/02/01/15:55:52.484251,1725,1549058152,484136746,imu,1233093370.87,0.0,0.0,0.0,-0.000437073293142,-0.00144887284841,0.00152833247557,-0.270280092955,0.19415320456,-9.78702926636,0.0,0.0
2019/02/01/15:55:52.504287,1726,1549058152,504133780,imu,1233093370.89,0.0,0.0,0.0,-0.000247379852226,2.6386405807e-06,0.00164357479662,-0.280357271433,0.212156549096,-9.83558273315,0.0,0.0
2019/02/01/15:55:52.524151,1727,1549058152,523974214,imu,1233093370.91,0.0,0.0,0.0,-0.000600441824645,0.000293004442938,0.00281503051519,-0.273072332144,0.185983523726,-9.7895526886,0.0,0.0
2019/02/01/15:55:52.544167,1728,1549058152,544056072,imu,1233093370.93,0.0,0.0,0.0,0.000766221317463,-0.00153547350783,0.00150415441021,-0.265430390835,0.204098507762,-9.81291675568,0.0,0.0
2019/02/01/15:55:52.564015,1729,1549058152,563926908,imu,1233093370.95,0.0,0.0,0.0,-0.000622604973614,-0.00103395222686,0.00341889820993,-0.266699999571,0.207178547978,-9.82029342651,0.0,0.0
2019/02/01/15:55:52.584132,1730,1549058152,583945064,imu,1233093370.97,0.0,0.0,0.0,0.000615479773842,0.000198210749659,0.00250358367339,-0.270701855421,0.199039831758,-9.7845954895,0.0,0.0
2019/02/01/15:55:52.604254,1731,1549058152,603994451,imu,1233093370.99,0.0,0.0,0.0,0.000174279441126,0.000144857593114,0.00234218174592,-0.254378765821,0.203470572829,-9.78492546082,0.0,0.0
2019/02/01/15:55:52.623966,1732,1549058152,623787212,imu,1233093371.01,0.0,0.0,0.0,0.00136759260204,-0.000414870359236,0.00254755746573,-0.104658618569,0.264935791492,-9.77069091797,0.0,0.0
2019/02/01/15:55:52.643972,1733,1549058152,643829969,imu,1233093371.03,0.0,0.0,0.0,0.00170164578594,0.000198504189029,0.00321935396641,0.17707760632,0.133572414517,-9.83703804016,0.0,0.0
2019/02/01/15:55:52.663733,1734,1549058152,663637369,imu,1233093371.05,0.0,0.0,0.0,0.00267876009457,0.00403076410294,0.00268715247512,0.208833411336,0.245093718171,-9.98372650146,0.0,0.0
2019/02/01/15:55:52.683756,1735,1549058152,683641734,imu,1233093371.07,0.0,0.0,0.0,-0.00316410209052,0.00504709826782,0.00192529754713,0.247495174408,0.108059607446,-10.024140358,0.0,0.0
2019/02/01/15:55:52.703967,1736,1549058152,703738655,imu,1233093371.09,0.0,0.0,0.0,-0.000849380972795,0.00376304588281,0.00144800310954,0.134566858411,0.196131452918,-9.62584877014,0.0,0.0
2019/02/01/15:55:52.723720,1737,1549058152,723512218,imu,1233093371.11,0.0,0.0,0.0,-0.000186732242582,0.00227966415696,0.00213011167943,-0.0336787067354,0.203579336405,-9.58231925964,0.0,0.0
2019/02/01/15:55:52.743716,1738,1549058152,743492868,imu,1233093371.13,0.0,0.0,0.0,0.000628555659205,-0.00175615563057,0.00239252392203,-0.226434126496,0.118825748563,-9.5301399231,0.0,0.0
2019/02/01/15:55:52.763752,1739,1549058152,763586549,imu,1233093371.15,0.0,0.0,0.0,-0.000423645105911,-0.00501734949648,0.00037051178515,-0.282731711864,0.230399087071,-9.66339111328,0.0,0.0
2019/02/01/15:55:52.784437,1740,1549058152,784023108,imu,1233093371.17,0.0,0.0,0.0,-0.00062014744617,-0.00780561706051,0.00307496171445,-0.160948574543,0.23849734664,-9.80839252472,0.0,0.0
2019/02/01/15:55:52.803620,1741,1549058152,803491296,imu,1233093371.19,0.0,0.0,0.0,0.00159842905123,-0.00611390266567,0.0021969457157,0.0351946130395,0.15519733727,-9.97204303741,0.0,0.0
2019/02/01/15:55:52.823919,1742,1549058152,823659494,imu,1233093371.21,0.0,0.0,0.0,0.00129149877466,-0.00212279707193,0.00203749956563,0.228573173285,0.193391606212,-10.185210228,0.0,0.0
2019/02/01/15:55:52.843652,1743,1549058152,843521317,imu,1233093371.23,0.0,0.0,0.0,0.000284602079773,0.00516061997041,0.00310545740649,0.405158370733,0.155940681696,-10.1251020432,0.0,0.0
2019/02/01/15:55:52.863833,1744,1549058152,863425138,imu,1233093371.25,0.0,0.0,0.0,0.0013138463255,0.00912418682128,0.00154043314978,0.448086857796,0.136581301689,-9.98597621918,0.0,0.0
2019/02/01/15:55:52.884092,1745,1549058152,883460986,imu,1233093371.27,0.0,0.0,0.0,-9.83019417617e-05,0.00993725378066,0.00242456886917,0.371330291033,0.158443599939,-9.73065662384,0.0,0.0
2019/02/01/15:55:52.903724,1746,1549058152,903524094,imu,1233093371.29,0.0,0.0,0.0,0.000538337335456,0.0083761587739,0.00255500990897,0.252615988255,0.142440855503,-9.5727853775,0.0,0.0
2019/02/01/15:55:52.923630,1747,1549058152,923454653,imu,1233093371.31,0.0,0.0,0.0,0.00233254395425,0.00391746265814,0.00227161962539,0.0797230526805,0.187709420919,-9.46555900574,0.0,0.0
2019/02/01/15:55:52.943443,1748,1549058152,943314119,imu,1233093371.33,0.0,0.0,0.0,0.00166946707759,-0.000523618189618,0.00112354848534,0.0635137557983,0.185195416212,-9.52152824402,0.0,0.0
2019/02/01/15:55:52.963506,1749,1549058152,963321341,imu,1233093371.35,0.0,0.0,0.0,0.00183063163422,-0.00437618372962,0.000876448582858,0.12212279439,0.151458933949,-9.69397926331,0.0,0.0
2019/02/01/15:55:52.983691,1750,1549058152,983518739,imu,1233093371.37,0.0,0.0,0.0,0.00217285938561,-0.00578496418893,0.00155470147729,0.236876562238,0.229681834579,-9.84078121185,0.0,0.0
2019/02/01/15:55:53.003370,1751,1549058153,3252720,imu,1233093371.39,0.0,0.0,0.0,4.7348352382e-05,-0.00366602907889,0.00186709687114,0.433436453342,0.200899258256,-10.0321912766,0.0,0.0
2019/02/01/15:55:53.023511,1752,1549058153,23396062,imu,1233093371.41,0.0,0.0,0.0,-4.40113653895e-05,0.000238346838159,0.00223595881835,0.572956204414,0.15880151093,-10.1100997925,0.0,0.0
2019/02/01/15:55:53.043425,1753,1549058153,43294179,imu,1233093371.43,0.0,0.0,0.0,-0.000259453809122,0.00404331926256,0.00126827228814,0.599785625935,0.143927022815,-10.0813961029,0.0,0.0
2019/02/01/15:55:53.064445,1754,1549058153,64279063,imu,1233093371.45,0.0,0.0,0.0,-0.00128855346702,0.00733821559697,0.00235664611682,0.541089951992,0.135808736086,-9.91390228271,0.0,0.0
2019/02/01/15:55:53.083486,1755,1549058153,83278361,imu,1233093371.47,0.0,0.0,0.0,0.000377904507332,0.00635571917519,0.00238885777071,0.421385645866,0.139922112226,-9.75096893311,0.0,0.0
2019/02/01/15:55:53.103487,1756,1549058153,103303867,imu,1233093371.49,0.0,0.0,0.0,0.00103049352765,0.00367798632942,0.00244455924258,0.340937912464,0.13266672194,-9.56381034851,0.0,0.0
2019/02/01/15:55:53.123255,1757,1549058153,123128501,imu,1233093371.51,0.0,0.0,0.0,0.003931757994,0.000310626113787,0.00269926059991,0.28906917572,0.12910746038,-9.57741928101,0.0,0.0
2019/02/01/15:55:53.144292,1758,1549058153,144147932,imu,1233093371.53,0.0,0.0,0.0,0.00301263690926,-0.0013848337112,0.00224554724991,0.337161898613,0.166527226567,-9.65016269684,0.0,0.0
2019/02/01/15:55:53.164301,1759,1549058153,164117041,imu,1233093371.55,0.0,0.0,0.0,0.00199979636818,-0.00432189926505,0.00115226767957,0.495787918568,0.167421370745,-9.8164396286,0.0,0.0
2019/02/01/15:55:53.184238,1760,1549058153,184037650,imu,1233093371.57,0.0,0.0,0.0,6.98344956618e-05,-0.00330060883425,0.00248780474067,0.673581302166,0.176525309682,-9.95996379852,0.0,0.0
2019/02/01/15:55:53.204369,1761,1549058153,204119588,imu,1233093371.59,0.0,0.0,0.0,0.000764982833061,0.00043391957297,0.00206408975646,0.767641961575,0.204350754619,-10.0027952194,0.0,0.0
2019/02/01/15:55:53.224241,1762,1549058153,224047380,imu,1233093371.61,0.0,0.0,0.0,-0.00263660331257,0.00268235686235,0.00210506562144,0.76247304678,0.152093976736,-10.0037202835,0.0,0.0
2019/02/01/15:55:53.244065,1763,1549058153,243853992,imu,1233093371.63,0.0,0.0,0.0,-0.00111841713078,0.00569594744593,0.0014803125523,0.713157594204,0.152201011777,-9.91278934479,0.0,0.0
2019/02/01/15:55:53.264009,1764,1549058153,263863839,imu,1233093371.65,0.0,0.0,0.0,-0.000482995790662,0.00341688329354,0.00243409909308,0.563095629215,0.153424218297,-9.70959186554,0.0,0.0
2019/02/01/15:55:53.284101,1765,1549058153,283911172,imu,1233093371.67,0.0,0.0,0.0,8.55097023305e-05,0.00155464513227,0.00136247603223,0.466032773256,0.0941102132201,-9.63971805573,0.0,0.0
2019/02/01/15:55:53.304174,1766,1549058153,304005846,imu,1233093371.69,0.0,0.0,0.0,0.000350510526914,-0.0010212091729,0.00108064291999,0.427110612392,0.0859814360738,-9.60431575775,0.0,0.0
2019/02/01/15:55:53.324162,1767,1549058153,323925975,imu,1233093371.71,0.0,0.0,0.0,0.00209259963594,-0.00426545366645,0.00151443108916,0.468341827393,0.217974111438,-9.66963863373,0.0,0.0
2019/02/01/15:55:53.344099,1768,1549058153,343940942,imu,1233093371.73,0.0,0.0,0.0,0.00179953116458,-0.00442332588136,0.00177083490416,0.562836110592,0.107364356518,-9.8113117218,0.0,0.0
2019/02/01/15:55:53.363812,1769,1549058153,363707387,imu,1233093371.75,0.0,0.0,0.0,0.00115783535875,-0.00409165723249,0.00280373962596,0.676444709301,0.246292501688,-9.97362136841,0.0,0.0
2019/02/01/15:55:53.383935,1770,1549058153,383784289,imu,1233093371.77,0.0,0.0,0.0,0.00178061996121,0.00082887330791,0.00225031841546,0.721735775471,0.185719177127,-9.99118995667,0.0,0.0
2019/02/01/15:55:53.404011,1771,1549058153,403764726,imu,1233093371.79,0.0,0.0,0.0,-0.000176333734998,0.00126032787375,0.00241208774969,0.710476696491,0.21493075788,-9.93741226196,0.0,0.0
2019/02/01/15:55:53.424168,1772,1549058153,423982861,imu,1233093371.81,0.0,0.0,0.0,-0.00352930929512,0.0039146845229,0.00203405460343,0.572905242443,0.207906261086,-9.80307769775,0.0,0.0
2019/02/01/15:55:53.443746,1773,1549058153,443601541,imu,1233093371.83,0.0,0.0,0.0,-0.00264143408276,0.00033640419133,0.00209466321394,0.514033555984,0.224158853292,-9.7397851944,0.0,0.0
2019/02/01/15:55:53.463769,1774,1549058153,463632082,imu,1233093371.85,0.0,0.0,0.0,-0.00219097780064,-0.000394413073082,0.00217858282849,0.410945206881,0.160805001855,-9.65672588348,0.0,0.0
2019/02/01/15:55:53.483961,1775,1549058153,483772561,imu,1233093371.87,0.0,0.0,0.0,-0.00110131001566,-0.00292000477202,0.00311319669709,0.385562121868,0.18139718473,-9.70473861694,0.0,0.0
2019/02/01/15:55:53.503710,1776,1549058153,503577353,imu,1233093371.89,0.0,0.0,0.0,0.00160890538245,-0.00395043147728,0.0029286807403,0.347831517458,0.200762048364,-9.76488780975,0.0,0.0
2019/02/01/15:55:53.523750,1777,1549058153,523610795,imu,1233093371.91,0.0,0.0,0.0,0.00348796788603,-0.00443716952577,0.00344415940344,0.428965747356,0.21432428062,-9.81207180023,0.0,0.0
2019/02/01/15:55:53.543739,1778,1549058153,543562393,imu,1233093371.93,0.0,0.0,0.0,0.00349947228096,-0.00337307690643,0.00461799371988,0.454557329416,0.257389247417,-9.87035179138,0.0,0.0
2019/02/01/15:55:53.563643,1779,1549058153,563511486,imu,1233093371.95,0.0,0.0,0.0,0.0020047063008,-0.000495568965562,0.00468224100769,0.470795452595,0.289419323206,-9.96158695221,0.0,0.0
2019/02/01/15:55:53.583584,1780,1549058153,583458094,imu,1233093371.97,0.0,0.0,0.0,0.00110297568608,0.000143575831316,0.00534557597712,0.530543923378,0.248683646321,-9.98162555695,0.0,0.0
2019/02/01/15:55:53.603595,1781,1549058153,603462051,imu,1233093371.99,0.0,0.0,0.0,0.00179425557144,0.00260040233843,0.00572759239003,0.493953496218,0.306230485439,-9.87893390656,0.0,0.0
2019/02/01/15:55:53.623622,1782,1549058153,623481108,imu,1233093372.01,0.0,0.0,0.0,-0.000298797240248,0.00223303586245,0.00751289259642,0.438904196024,0.219376698136,-9.76473522186,0.0,0.0
2019/02/01/15:55:53.643464,1783,1549058153,643328618,imu,1233093372.03,0.0,0.0,0.0,-0.00120680301916,0.00303704710677,0.00764613831416,0.414349943399,0.169038906693,-9.67403697968,0.0,0.0
2019/02/01/15:55:53.663394,1784,1549058153,663280489,imu,1233093372.05,0.0,0.0,0.0,-0.00175985950045,-0.00024047025363,0.00837636273354,0.351728886366,0.235140129924,-9.66649341583,0.0,0.0
2019/02/01/15:55:53.683351,1785,1549058153,683241407,imu,1233093372.07,0.0,0.0,0.0,-0.00172906776424,-0.00272873742506,0.00945349782705,0.334357708693,0.147904112935,-9.69131660461,0.0,0.0
2019/02/01/15:55:53.703461,1786,1549058153,703269044,imu,1233093372.09,0.0,0.0,0.0,0.00219450052828,-0.00367273204029,0.010416559875,0.367354035378,0.246774733067,-9.80177211761,0.0,0.0
2019/02/01/15:55:53.723346,1787,1549058153,723115468,imu,1233093372.11,0.0,0.0,0.0,-0.00190756842494,-0.00546701438725,0.0122730154544,0.387992471457,0.0856766179204,-9.81440067291,0.0,0.0
2019/02/01/15:55:53.743469,1788,1549058153,743312941,imu,1233093372.13,0.0,0.0,0.0,0.00144270888995,-0.00345374783501,0.0121658202261,0.336977869272,0.207438513637,-9.83270454407,0.0,0.0
2019/02/01/15:55:53.763199,1789,1549058153,763104713,imu,1233093372.15,0.0,0.0,0.0,0.00142656243406,-0.00287761678919,0.0111320782453,0.373187690973,0.0550256706774,-9.96146583557,0.0,0.0
2019/02/01/15:55:53.784428,1790,1549058153,784166034,imu,1233093372.17,0.0,0.0,0.0,0.00333874695934,0.00138687901199,0.0129044009373,0.3415158391,0.232523560524,-9.83833408356,0.0,0.0
2019/02/01/15:55:53.804291,1791,1549058153,804104509,imu,1233093372.19,0.0,0.0,0.0,0.00257004774176,0.0007698321715,0.0118384435773,0.254272818565,0.232179775834,-9.80118179321,0.0,0.0
2019/02/01/15:55:53.824085,1792,1549058153,823982293,imu,1233093372.21,0.0,0.0,0.0,0.00117127329577,0.00183875986841,0.0127353407443,0.311147063971,0.297485888004,-9.86286258698,0.0,0.0
2019/02/01/15:55:53.844270,1793,1549058153,844001209,imu,1233093372.23,0.0,0.0,0.0,0.0016934403684,0.000352396164089,0.0123301502317,0.340707957745,0.202405110002,-9.79076957703,0.0,0.0
2019/02/01/15:55:53.863967,1794,1549058153,863862833,imu,1233093372.25,0.0,0.0,0.0,-0.00125877803657,0.000879641855136,0.0110408123583,0.314281225204,0.180646747351,-9.8002204895,0.0,0.0
2019/02/01/15:55:53.884087,1795,1549058153,883863525,imu,1233093372.27,0.0,0.0,0.0,-0.00225176359527,-0.000877522630617,0.0108072701842,0.387166410685,0.098372220993,-9.72810840607,0.0,0.0
2019/02/01/15:55:53.904031,1796,1549058153,903913777,imu,1233093372.29,0.0,0.0,0.0,0.000184738513781,-0.000138577539474,0.0113184079528,0.36758902669,0.149207636714,-9.73732185364,0.0,0.0
2019/02/01/15:55:53.924505,1797,1549058153,924192963,imu,1233093372.31,0.0,0.0,0.0,-0.000942254671827,-0.00285794003867,0.00951565150172,0.327333509922,0.0784724727273,-9.71174621582,0.0,0.0
2019/02/01/15:55:53.944060,1798,1549058153,943929522,imu,1233093372.33,0.0,0.0,0.0,0.000342901272234,-0.00416895886883,0.0102517679334,0.300104558468,0.131299346685,-9.74733161926,0.0,0.0
2019/02/01/15:55:53.964339,1799,1549058153,963915308,imu,1233093372.35,0.0,0.0,0.0,-0.000213658291614,-0.00350331328809,0.008590195328,0.338528811932,0.095958635211,-9.80139923096,0.0,0.0
2019/02/01/15:55:53.984221,1800,1549058153,983916123,imu,1233093372.37,0.0,0.0,0.0,-0.00296696368605,-0.00364653114229,0.00836906861514,0.263776898384,0.110767409205,-9.88660049438,0.0,0.0
2019/02/01/15:55:54.003963,1801,1549058154,3780130,imu,1233093372.39,0.0,0.0,0.0,-0.00247191637754,-0.00277631892823,0.00836411584169,0.31601575017,0.110501438379,-9.93190383911,0.0,0.0
2019/02/01/15:55:54.024068,1802,1549058154,23746144,imu,1233093372.41,0.0,0.0,0.0,0.000403281272156,-0.00149648787919,0.00772202247754,0.272634148598,0.138328418136,-9.92065429688,0.0,0.0
2019/02/01/15:55:54.043905,1803,1549058154,43711874,imu,1233093372.43,0.0,0.0,0.0,-0.00140288856346,5.35391445737e-05,0.00762321287766,0.202784880996,0.0317827314138,-9.82194137573,0.0,0.0
2019/02/01/15:55:54.064332,1804,1549058154,63847715,imu,1233093372.45,0.0,0.0,0.0,0.000550767639652,-0.00158575945534,0.00842147972435,0.241654530168,0.105888202786,-9.89399147034,0.0,0.0
2019/02/01/15:55:54.083849,1805,1549058154,83661183,imu,1233093372.47,0.0,0.0,0.0,0.000824175367597,3.50883638021e-05,0.00699099432677,0.19047896564,0.049851577729,-9.7561340332,0.0,0.0
2019/02/01/15:55:54.103749,1806,1549058154,103600243,imu,1233093372.49,0.0,0.0,0.0,-0.000713754154276,-0.00209312420338,0.00732994033024,0.191257163882,0.0620136111975,-9.77415657043,0.0,0.0
2019/02/01/15:55:54.123670,1807,1549058154,123549475,imu,1233093372.51,0.0,0.0,0.0,0.00148454774171,-0.00418379576877,0.00680580828339,0.118692189455,0.0704987496138,-9.76111793518,0.0,0.0
2019/02/01/15:55:54.143752,1808,1549058154,143556344,imu,1233093372.53,0.0,0.0,0.0,0.000927175977267,-0.00417820131406,0.00538670364767,0.135328754783,0.111974224448,-9.79548549652,0.0,0.0
2019/02/01/15:55:54.163664,1809,1549058154,163488523,imu,1233093372.55,0.0,0.0,0.0,0.00180637883022,-0.00367189384997,0.00505100283772,0.0976254791021,0.0242163967341,-9.75742912292,0.0,0.0
2019/02/01/15:55:54.183749,1810,1549058154,183499881,imu,1233093372.57,0.0,0.0,0.0,7.48884049244e-05,-0.00327793508768,0.00372540066019,0.0292509160936,0.0142810204998,-9.77353668213,0.0,0.0
2019/02/01/15:55:54.203706,1811,1549058154,203477480,imu,1233093372.59,0.0,0.0,0.0,0.00443550385535,-0.00363555224612,0.00122372852638,0.034750148654,0.0988420620561,-9.78546524048,0.0,0.0
2019/02/01/15:55:54.223557,1812,1549058154,223411850,imu,1233093372.61,0.0,0.0,0.0,0.00279371696524,-0.00117066863459,0.0003243079409,0.0607342720032,0.0687293857336,-9.84528064728,0.0,0.0
2019/02/01/15:55:54.243526,1813,1549058154,243344493,imu,1233093372.63,0.0,0.0,0.0,-1.38669856824e-05,-0.00140362419188,-0.000934759620577,0.0524236261845,0.0299333892763,-9.87653255463,0.0,0.0
2019/02/01/15:55:54.263754,1814,1549058154,263524618,imu,1233093372.65,0.0,0.0,0.0,0.00257765571587,-0.000729297986254,-0.000657438766211,0.140974983573,0.0552451275289,-9.92765617371,0.0,0.0
2019/02/01/15:55:54.283553,1815,1549058154,283391023,imu,1233093372.67,0.0,0.0,0.0,0.00124565174337,0.000668687978759,-0.00252125551924,0.161670297384,0.168367400765,-9.88754177094,0.0,0.0
2019/02/01/15:55:54.303489,1816,1549058154,303327204,imu,1233093372.69,0.0,0.0,0.0,-0.00327998283319,0.000633783056401,-0.00469619780779,0.0945484191179,0.1116656214,-9.78537845612,0.0,0.0
2019/02/01/15:55:54.323261,1817,1549058154,323138356,imu,1233093372.71,0.0,0.0,0.0,-0.00189237645827,0.000494867679663,-0.00486570037901,0.0879333913326,0.129012063146,-9.81870651245,0.0,0.0
2019/02/01/15:55:54.343485,1818,1549058154,343287413,imu,1233093372.73,0.0,0.0,0.0,0.00145746965427,-0.000984536018223,-0.00548931304365,0.059591665864,0.0832887738943,-9.87902736664,0.0,0.0
2019/02/01/15:55:54.363252,1819,1549058154,363163272,imu,1233093372.75,0.0,0.0,0.0,-3.41233389918e-05,-0.0018942017341,-0.00681971525773,0.000702450051904,0.284127861261,-9.72294330597,0.0,0.0
2019/02/01/15:55:54.384683,1820,1549058154,384484458,imu,1233093372.77,0.0,0.0,0.0,-0.00297901011072,-0.00398847041652,-0.00403252057731,-0.0532275103033,0.147840559483,-9.74947357178,0.0,0.0
2019/02/01/15:55:54.404466,1821,1549058154,404320152,imu,1233093372.79,0.0,0.0,0.0,-0.00433540903032,-0.00469755614176,-0.00614133290946,0.0244602877647,0.172393471003,-9.73613262177,0.0,0.0
2019/02/01/15:55:54.424283,1822,1549058154,424150207,imu,1233093372.81,0.0,0.0,0.0,-0.00674282992259,-0.00344944791868,-0.00588261615485,0.0201497636735,0.146782487631,-9.73855876923,0.0,0.0
2019/02/01/15:55:54.444272,1823,1549058154,444131452,imu,1233093372.83,0.0,0.0,0.0,-0.00882807932794,-0.0021949200891,-0.00359094655141,0.059644062072,0.111166641116,-9.82716751099,0.0,0.0
2019/02/01/15:55:54.464257,1824,1549058154,464126910,imu,1233093372.85,0.0,0.0,0.0,-0.00991707015783,-0.00214324868284,-0.00420961342752,0.0769821703434,0.116988360882,-9.84889316559,0.0,0.0
2019/02/01/15:55:54.484264,1825,1549058154,484066654,imu,1233093372.87,0.0,0.0,0.0,-0.00678404187784,0.00180008832831,-0.00283337710425,0.119301602244,0.203044638038,-9.88259601593,0.0,0.0
2019/02/01/15:55:54.504158,1826,1549058154,504009138,imu,1233093372.89,0.0,0.0,0.0,-0.0102007975802,0.00117443746421,-0.00296922121197,0.0738029927015,0.247655898333,-9.81166362762,0.0,0.0
2019/02/01/15:55:54.524044,1827,1549058154,523926224,imu,1233093372.91,0.0,0.0,0.0,-0.00951076019555,0.000550507102162,-0.00142530445009,0.0254036318511,0.323133558035,-9.63795185089,0.0,0.0
2019/02/01/15:55:54.544082,1828,1549058154,543936712,imu,1233093372.93,0.0,0.0,0.0,-0.00807466637343,-0.00122033758089,0.000495283864439,-0.100649625063,0.250024169683,-9.63889598846,0.0,0.0
2019/02/01/15:55:54.564242,1829,1549058154,564035370,imu,1233093372.95,0.0,0.0,0.0,-0.00492000859231,-0.00159947003704,0.000601679086685,-0.087318405509,0.310554325581,-9.75816249847,0.0,0.0
2019/02/01/15:55:54.584137,1830,1549058154,583983579,imu,1233093372.97,0.0,0.0,0.0,-0.00595742417499,-0.00327405752614,0.00240342784673,-0.0876551866531,0.302869945765,-9.78544616699,0.0,0.0
2019/02/01/15:55:54.604060,1831,1549058154,603949911,imu,1233093372.99,0.0,0.0,0.0,-0.00446060765535,-0.00267593609169,0.00259791919962,-0.104654803872,0.263968378305,-9.86629867554,0.0,0.0
2019/02/01/15:55:54.623998,1832,1549058154,623784144,imu,1233093373.01,0.0,0.0,0.0,0.000329995586071,-0.00313948048279,0.00427604978904,-0.0675513148308,0.29488953948,-9.87559700012,0.0,0.0
2019/02/01/15:55:54.643998,1833,1549058154,643811174,imu,1233093373.03,0.0,0.0,0.0,-5.34046557732e-06,-0.00229482911527,0.00453672744334,-0.0100066289306,0.281883567572,-9.98562145233,0.0,0.0
2019/02/01/15:55:54.664016,1834,1549058154,663786894,imu,1233093373.05,0.0,0.0,0.0,0.000623981584795,0.0014356970787,0.00397626217455,-0.00305123999715,0.256536096334,-10.0299882889,0.0,0.0
2019/02/01/15:55:54.684012,1835,1549058154,683805005,imu,1233093373.07,0.0,0.0,0.0,0.00322463642806,0.00301063805819,0.0022221012041,0.0471605248749,0.146829739213,-9.89339828491,0.0,0.0
2019/02/01/15:55:54.704175,1836,1549058154,703905767,imu,1233093373.09,0.0,0.0,0.0,0.00645799655467,0.00274337665178,0.000306373927742,-0.0935428887606,0.251142829657,-9.78347492218,0.0,0.0
2019/02/01/15:55:54.723977,1837,1549058154,723749187,imu,1233093373.11,0.0,0.0,0.0,0.00499340612441,0.00223620561883,0.0013706269674,-0.236628428102,0.341122239828,-9.68103694916,0.0,0.0
2019/02/01/15:55:54.743883,1838,1549058154,743705190,imu,1233093373.13,0.0,0.0,0.0,0.00497417431325,-0.00144234451,-0.000298884231597,-0.29190286994,0.235394105315,-9.646235466,0.0,0.0
2019/02/01/15:55:54.763849,1839,1549058154,763638536,imu,1233093373.15,0.0,0.0,0.0,0.0103727998212,-0.00223721144721,0.000173373613507,-0.260400384665,0.25631788373,-9.68015480042,0.0,0.0
2019/02/01/15:55:54.783844,1840,1549058154,783623201,imu,1233093373.17,0.0,0.0,0.0,0.00954023003578,-0.00548286642879,0.00225058430806,-0.360645800829,0.282956659794,-9.66701316833,0.0,0.0
2019/02/01/15:55:54.803980,1841,1549058154,803711366,imu,1233093373.19,0.0,0.0,0.0,0.00626327423379,-0.00704546039924,0.00100959278643,-0.265874147415,0.256537109613,-9.87214851379,0.0,0.0
2019/02/01/15:55:54.823642,1842,1549058154,823496556,imu,1233093373.21,0.0,0.0,0.0,0.00773520441726,-0.00820929370821,0.00141564244404,-0.258017301559,0.203597187996,-9.87751197815,0.0,0.0
2019/02/01/15:55:54.843809,1843,1549058154,843616156,imu,1233093373.23,0.0,0.0,0.0,0.0068576107733,-0.00255700224079,0.00088018970564,-0.249568969011,0.130476474762,-9.97202110291,0.0,0.0
2019/02/01/15:55:54.863645,1844,1549058154,863459363,imu,1233093373.25,0.0,0.0,0.0,0.00803590938449,-0.0022125733085,0.000687340740114,-0.234876662493,0.0666246935725,-9.9869556427,0.0,0.0
2019/02/01/15:55:54.883740,1845,1549058154,883535810,imu,1233093373.27,0.0,0.0,0.0,0.010313142091,-0.000692119821906,0.000379409641027,-0.234547644854,0.15190705657,-9.9173412323,0.0,0.0
2019/02/01/15:55:54.903644,1846,1549058154,903498802,imu,1233093373.29,0.0,0.0,0.0,0.0102360537276,0.000904632266611,-0.000557877589017,-0.276062726974,0.11557725817,-9.76971817017,0.0,0.0
2019/02/01/15:55:54.923709,1847,1549058154,923482954,imu,1233093373.31,0.0,0.0,0.0,0.0101787261665,0.000967371510342,-0.000686241313815,-0.243069797754,0.0445550084114,-9.75961685181,0.0,0.0
2019/02/01/15:55:54.943505,1848,1549058154,943352892,imu,1233093373.33,0.0,0.0,0.0,0.0098567539826,0.00198552012444,-0.0034875520505,-0.264021456242,0.0488499253988,-9.65566825867,0.0,0.0
2019/02/01/15:55:54.963946,1849,1549058154,963727454,imu,1233093373.35,0.0,0.0,0.0,0.00616616290063,0.00113079987932,-0.00265159085393,-0.228174462914,0.0505766682327,-9.60939979553,0.0,0.0
2019/02/01/15:55:54.983539,1850,1549058154,983419234,imu,1233093373.37,0.0,0.0,0.0,0.00499287573621,0.000539018656127,-0.00622596312314,-0.220965281129,-0.0105546200648,-9.64568138123,0.0,0.0
2019/02/01/15:55:55.003601,1851,1549058155,3376380,imu,1233093373.39,0.0,0.0,0.0,0.00129693746567,0.000548269192223,-0.00763401901349,-0.246714234352,0.00457746721804,-9.81701469421,0.0,0.0
2019/02/01/15:55:55.024109,1852,1549058155,23606617,imu,1233093373.41,0.0,0.0,0.0,0.00452680839226,0.00194966932759,-0.00911869946867,-0.211944103241,-0.0204737894237,-9.75577354431,0.0,0.0
2019/02/01/15:55:55.043508,1853,1549058155,43296574,imu,1233093373.43,0.0,0.0,0.0,0.00330053665675,0.00187742803246,-0.00931975897402,-0.178211569786,-0.012953158468,-9.74807167053,0.0,0.0
2019/02/01/15:55:55.064043,1854,1549058155,63352300,imu,1233093373.45,0.0,0.0,0.0,0.00855640135705,0.00245739007369,-0.00854909792542,-0.145971387625,0.000409800908528,-9.86113834381,0.0,0.0
2019/02/01/15:55:55.083437,1855,1549058155,83242179,imu,1233093373.47,0.0,0.0,0.0,0.00628005433828,0.00473481230438,-0.0112292841077,-0.0745784640312,0.0235969237983,-9.8507566452,0.0,0.0
2019/02/01/15:55:55.103304,1856,1549058155,103150418,imu,1233093373.49,0.0,0.0,0.0,0.00103409052826,0.00376199092716,-0.0112663162872,-0.163926243782,0.0553016997874,-9.82383441925,0.0,0.0
2019/02/01/15:55:55.124743,1857,1549058155,124306239,imu,1233093373.51,0.0,0.0,0.0,0.00448289001361,0.00397047959268,-0.0111358202994,-0.126324862242,0.15870372951,-9.88111495972,0.0,0.0
2019/02/01/15:55:55.143187,1858,1549058155,143072280,imu,1233093373.53,0.0,0.0,0.0,0.00347103737295,0.00355094322003,-0.0120544107631,-0.240338414907,0.164935961366,-9.84291362762,0.0,0.0
2019/02/01/15:55:55.164850,1859,1549058155,164359867,imu,1233093373.55,0.0,0.0,0.0,0.00146686891094,0.00182580854744,-0.0121272578835,-0.245908334851,-0.00465907808393,-9.88042640686,0.0,0.0
2019/02/01/15:55:55.184097,1860,1549058155,184020586,imu,1233093373.57,0.0,0.0,0.0,0.000434741872596,6.01168139838e-05,-0.012737698853,-0.265228569508,0.103614225984,-9.86536598206,0.0,0.0
2019/02/01/15:55:55.204174,1861,1549058155,203978663,imu,1233093373.59,0.0,0.0,0.0,-0.000270153366728,0.000595272344071,-0.0161410346627,-0.25000089407,-0.00575124286115,-9.83150672913,0.0,0.0
2019/02/01/15:55:55.224192,1862,1549058155,224008203,imu,1233093373.61,0.0,0.0,0.0,-0.00156730040908,-0.00106493080966,-0.0168509818614,-0.173718422651,0.300538390875,-9.82153511047,0.0,0.0
2019/02/01/15:55:55.244071,1863,1549058155,243893923,imu,1233093373.63,0.0,0.0,0.0,-0.000247014773777,-0.00367012107745,-0.0167869664729,-0.102568775415,0.0942844226956,-9.81872653961,0.0,0.0
2019/02/01/15:55:55.264130,1864,1549058155,263991973,imu,1233093373.65,0.0,0.0,0.0,0.00281005050056,-0.00325008993968,-0.0181640908122,-0.136543616652,0.0614011697471,-9.78955364227,0.0,0.0
2019/02/01/15:55:55.284141,1865,1549058155,283891239,imu,1233093373.67,0.0,0.0,0.0,0.00190484221093,-0.00350135238841,-0.0170523785055,-0.027430921793,0.15027987957,-9.62438488007,0.0,0.0
2019/02/01/15:55:55.304028,1866,1549058155,303913532,imu,1233093373.69,0.0,0.0,0.0,0.000392964429921,-0.00105290731881,-0.0164700485766,-0.0625783354044,0.265620231628,-9.65931034088,0.0,0.0
2019/02/01/15:55:55.324023,1867,1549058155,323903838,imu,1233093373.71,0.0,0.0,0.0,-0.00430112984031,-0.00344140105881,-0.0169528555125,-0.0404120087624,0.339047849178,-9.77004528046,0.0,0.0
2019/02/01/15:55:55.344282,1868,1549058155,344112453,imu,1233093373.73,0.0,0.0,0.0,-0.00216614245437,-0.00293371174484,-0.0142576228827,-0.0666888803244,0.323866188526,-9.76738548279,0.0,0.0
2019/02/01/15:55:55.363926,1869,1549058155,363788034,imu,1233093373.75,0.0,0.0,0.0,-0.00162046321202,-0.00227067619562,-0.0117894075811,-0.0321032851934,0.228966057301,-9.74165058136,0.0,0.0
2019/02/01/15:55:55.384411,1870,1549058155,383737681,imu,1233093373.77,0.0,0.0,0.0,-0.00258115120232,-0.00263176485896,-0.0114100547507,-0.00256550498307,0.28926423192,-9.86237239838,0.0,0.0
2019/02/01/15:55:55.404005,1871,1549058155,403759149,imu,1233093373.79,0.0,0.0,0.0,0.00268603675067,-0.0009353592759,-0.00891504436731,0.0433455109596,0.234002128243,-9.88578224182,0.0,0.0
2019/02/01/15:55:55.423968,1872,1549058155,423776593,imu,1233093373.81,0.0,0.0,0.0,0.00351267610677,0.000346827931935,-0.0103398934007,-0.00356311351061,0.123166866601,-9.74922657013,0.0,0.0
2019/02/01/15:55:55.443861,1873,1549058155,443672150,imu,1233093373.83,0.0,0.0,0.0,0.00507724843919,-1.08982785605e-05,-0.00864404346794,0.16840519011,0.359453827143,-9.80063343048,0.0,0.0
2019/02/01/15:55:55.463897,1874,1549058155,463688966,imu,1233093373.85,0.0,0.0,0.0,0.00393651565537,-0.000186832301551,-0.00715296156704,0.131522655487,0.226484164596,-9.85070133209,0.0,0.0
2019/02/01/15:55:55.483664,1875,1549058155,483523980,imu,1233093373.87,0.0,0.0,0.0,0.000709304586053,0.00241591804661,-0.0074573145248,0.192125841975,0.210645899177,-9.80640506744,0.0,0.0
2019/02/01/15:55:55.503681,1876,1549058155,503560428,imu,1233093373.89,0.0,0.0,0.0,0.00408895034343,0.00486397370696,-0.00659375777468,0.291845142841,0.285426527262,-9.8325843811,0.0,0.0
2019/02/01/15:55:55.523776,1877,1549058155,523589616,imu,1233093373.91,0.0,0.0,0.0,0.000160921626957,0.0020064425189,-0.00664152996615,0.113256752491,0.19957485795,-9.72602462769,0.0,0.0
2019/02/01/15:55:55.543612,1878,1549058155,543504747,imu,1233093373.93,0.0,0.0,0.0,-0.00486273923889,4.80146845803e-05,-0.00633845990524,0.210183665156,0.35145547986,-9.76211643219,0.0,0.0
2019/02/01/15:55:55.563518,1879,1549058155,563435947,imu,1233093373.95,0.0,0.0,0.0,-0.00169933272991,-0.000312339951051,-0.00507728895172,0.160311371088,0.196892127395,-9.69987297058,0.0,0.0
2019/02/01/15:55:55.583551,1880,1549058155,583418568,imu,1233093373.97,0.0,0.0,0.0,-0.00351817463525,-0.00167166732717,-0.00462972326204,0.279381334782,0.160226657987,-9.72089862823,0.0,0.0
2019/02/01/15:55:55.603677,1881,1549058155,603457564,imu,1233093373.99,0.0,0.0,0.0,-0.00336553552188,-0.0036466200836,-0.0027577211149,0.359933525324,0.178577467799,-9.79786872864,0.0,0.0
2019/02/01/15:55:55.623601,1882,1549058155,623454387,imu,1233093374.01,0.0,0.0,0.0,-0.00196128501557,-0.00129275885411,-0.00264604063705,0.311865270138,0.148052483797,-9.90204906464,0.0,0.0
2019/02/01/15:55:55.643588,1883,1549058155,643302212,imu,1233093374.03,0.0,0.0,0.0,0.000187720026588,-0.00189504958689,0.000290998723358,0.350885480642,0.237086698413,-10.0203456879,0.0,0.0
2019/02/01/15:55:55.663643,1884,1549058155,663476704,imu,1233093374.05,0.0,0.0,0.0,0.0011748180259,-0.000595230783802,0.000792127102613,0.390334010124,0.184306666255,-9.90314483643,0.0,0.0
2019/02/01/15:55:55.683468,1885,1549058155,683301411,imu,1233093374.07,0.0,0.0,0.0,0.00366949476302,-0.000279481231701,0.00303898425773,0.408055126667,0.237329468131,-9.92829036713,0.0,0.0
2019/02/01/15:55:55.703651,1886,1549058155,703362850,imu,1233093374.09,0.0,0.0,0.0,0.0072535709478,0.000567543203942,0.00515503203496,0.333248347044,0.200185030699,-9.82794189453,0.0,0.0
2019/02/01/15:55:55.723471,1887,1549058155,723300795,imu,1233093374.11,0.0,0.0,0.0,0.00795960985124,-0.00199169525877,0.00294137606397,0.403678685427,0.295286864042,-9.79218101501,0.0,0.0
2019/02/01/15:55:55.743313,1888,1549058155,743184664,imu,1233093374.13,0.0,0.0,0.0,0.00578420469537,-0.00135953712743,0.00396955152974,0.446683079004,0.184605792165,-9.65269851685,0.0,0.0
2019/02/01/15:55:55.763440,1889,1549058155,763293285,imu,1233093374.15,0.0,0.0,0.0,0.00717867864296,5.35232247785e-05,0.00512641761452,0.435521095991,0.277813792229,-9.72789382935,0.0,0.0
2019/02/01/15:55:55.783379,1890,1549058155,783251955,imu,1233093374.17,0.0,0.0,0.0,0.00957508478314,-1.21065531857e-05,0.00385946547613,0.51628857851,0.209117874503,-9.75739192963,0.0,0.0
2019/02/01/15:55:55.803354,1891,1549058155,803162059,imu,1233093374.19,0.0,0.0,0.0,0.00426157331094,0.000490668753628,0.00184136955068,0.529018580914,0.129473611712,-9.7632856369,0.0,0.0
2019/02/01/15:55:55.824398,1892,1549058155,824200295,imu,1233093374.21,0.0,0.0,0.0,0.00407724827528,0.00118169398047,0.00110717257485,0.555525839329,0.060309227556,-9.90972042084,0.0,0.0
2019/02/01/15:55:55.844170,1893,1549058155,844065434,imu,1233093374.23,0.0,0.0,0.0,0.00631199963391,0.00125167763326,0.0010927519761,0.584409415722,0.234845817089,-9.97812747955,0.0,0.0
2019/02/01/15:55:55.864320,1894,1549058155,864127113,imu,1233093374.25,0.0,0.0,0.0,0.0081689376384,0.00100675818976,0.00127231795341,0.666738212109,-0.040848556906,-9.96723842621,0.0,0.0
2019/02/01/15:55:55.884116,1895,1549058155,883949487,imu,1233093374.27,0.0,0.0,0.0,0.00388098484837,0.00307747256011,-0.00147308036685,0.66326123476,0.125829935074,-9.83655643463,0.0,0.0
2019/02/01/15:55:55.904265,1896,1549058155,904055857,imu,1233093374.29,0.0,0.0,0.0,0.00373480282724,0.00219157570973,-0.00274281995371,0.6755245924,0.128515616059,-9.81687259674,0.0,0.0
2019/02/01/15:55:55.924086,1897,1549058155,923858523,imu,1233093374.31,0.0,0.0,0.0,0.0028852163814,0.00354178622365,-0.00160462642089,0.588387906551,0.0513573214412,-9.67359638214,0.0,0.0
2019/02/01/15:55:55.944069,1898,1549058155,943846858,imu,1233093374.33,0.0,0.0,0.0,0.00259903213009,-0.0011625085026,-0.00137677369639,0.540206730366,0.126506894827,-9.72832202911,0.0,0.0
2019/02/01/15:55:55.963896,1899,1549058155,963785557,imu,1233093374.35,0.0,0.0,0.0,-0.000719429692253,-0.00209790864028,0.000354278367013,0.630238294601,0.0962344035506,-9.85071849823,0.0,0.0
2019/02/01/15:55:55.984303,1900,1549058155,984019728,imu,1233093374.37,0.0,0.0,0.0,0.00238457764499,-0.00181541044731,0.00151837989688,0.676605284214,0.0460861288011,-9.83905506134,0.0,0.0
2019/02/01/15:55:56.004011,1901,1549058156,3788020,imu,1233093374.39,0.0,0.0,0.0,0.0044149113819,-0.00269489106722,0.00275052012876,0.690228521824,0.0863871797919,-9.79259204865,0.0,0.0
2019/02/01/15:55:56.024203,1902,1549058156,24023768,imu,1233093374.41,0.0,0.0,0.0,0.00502220215276,-0.00273277400993,0.00472550280392,0.690437555313,0.0714445784688,-9.95994567871,0.0,0.0
2019/02/01/15:55:56.044057,1903,1549058156,43816526,imu,1233093374.43,0.0,0.0,0.0,0.000579826766625,-0.00124570191838,0.00356101198122,0.647163927555,0.09345857054,-9.92163085938,0.0,0.0
2019/02/01/15:55:56.063798,1904,1549058156,63644422,imu,1233093374.45,0.0,0.0,0.0,0.000993566587567,-0.00107899028808,0.00393352657557,0.719245135784,0.181910872459,-9.84908103943,0.0,0.0
2019/02/01/15:55:56.083756,1905,1549058156,83609323,imu,1233093374.47,0.0,0.0,0.0,0.00727067422122,0.00101483077742,0.00405373889953,0.688919842243,0.169812932611,-9.8152923584,0.0,0.0
2019/02/01/15:55:56.104115,1906,1549058156,103858319,imu,1233093374.49,0.0,0.0,0.0,0.00393726164475,0.0016832773108,0.00310106668621,0.674361646175,0.17053899169,-9.82773780823,0.0,0.0
2019/02/01/15:55:56.124004,1907,1549058156,123705579,imu,1233093374.51,0.0,0.0,0.0,0.00622594496235,0.00284034572542,0.0026492131874,0.620352089405,0.0357481874526,-9.84813404083,0.0,0.0
2019/02/01/15:55:56.143658,1908,1549058156,143516350,imu,1233093374.53,0.0,0.0,0.0,0.00403704307973,-0.000739343755413,0.00202565966174,0.68006926775,-0.0389176681638,-9.82896995544,0.0,0.0
2019/02/01/15:55:56.164494,1909,1549058156,163521637,imu,1233093374.55,0.0,0.0,0.0,0.00592187838629,-0.000152381137013,-0.0011631064117,0.698630273342,0.0428952015936,-9.84301185608,0.0,0.0
2019/02/01/15:55:56.183609,1910,1549058156,183473689,imu,1233093374.57,0.0,0.0,0.0,0.00407086359337,-0.00365652306937,-0.00153021281585,0.692363679409,0.203157752752,-9.88796806335,0.0,0.0
2019/02/01/15:55:56.203611,1911,1549058156,203475813,imu,1233093374.59,0.0,0.0,0.0,0.00463466858491,-0.00174051569775,-0.00167373474687,0.783729374409,0.0393365472555,-10.0036153793,0.0,0.0
2019/02/01/15:55:56.223677,1912,1549058156,223460027,imu,1233093374.61,0.0,0.0,0.0,0.00493581173941,-0.00147123809438,-0.00245570251718,0.660477936268,0.0254142545164,-9.94902229309,0.0,0.0
2019/02/01/15:55:56.243640,1913,1549058156,243493250,imu,1233093374.63,0.0,0.0,0.0,0.00805915519595,-0.00233752978966,-0.00456250738353,0.790844023228,-0.157615691423,-10.0117607117,0.0,0.0
2019/02/01/15:55:56.263571,1914,1549058156,263408833,imu,1233093374.65,0.0,0.0,0.0,0.00628587370738,-0.00076745043043,-0.00651605660096,0.695030748844,-0.0633022114635,-9.90546989441,0.0,0.0
2019/02/01/15:55:56.283567,1915,1549058156,283418184,imu,1233093374.67,0.0,0.0,0.0,0.00751342624426,-0.00143145793118,-0.00903442967683,0.756457149982,-0.114614292979,-9.69827842712,0.0,0.0
2019/02/01/15:55:56.303647,1916,1549058156,303460979,imu,1233093374.69,0.0,0.0,0.0,0.0147372344509,0.00160599220544,-0.0118897482753,0.733514845371,-0.249186292291,-9.65841293335,0.0,0.0
2019/02/01/15:55:56.323590,1917,1549058156,323367076,imu,1233093374.71,0.0,0.0,0.0,0.0144970174879,5.90248964727e-06,-0.0137317935005,0.712106764317,-0.25018838048,-9.67141914368,0.0,0.0
2019/02/01/15:55:56.343463,1918,1549058156,343315042,imu,1233093374.73,0.0,0.0,0.0,0.0151677951217,0.00322440639138,-0.0168023128062,0.782148122787,-0.107900679111,-9.946600914,0.0,0.0
2019/02/01/15:55:56.363332,1919,1549058156,363223265,imu,1233093374.75,0.0,0.0,0.0,0.0114293219522,0.00434213597327,-0.0173482317477,0.821324944496,-0.203489720821,-9.85297584534,0.0,0.0
2019/02/01/15:55:56.383544,1920,1549058156,383378092,imu,1233093374.77,0.0,0.0,0.0,0.0123687190935,0.00690968288109,-0.0171774122864,0.733475804329,-0.0182077903301,-9.91782188416,0.0,0.0
2019/02/01/15:55:56.404435,1921,1549058156,404201914,imu,1233093374.79,0.0,0.0,0.0,0.0121824713424,0.00727368425578,-0.0195016153157,0.768721520901,-0.209608197212,-9.92593288422,0.0,0.0
2019/02/01/15:55:56.423396,1922,1549058156,423215123,imu,1233093374.81,0.0,0.0,0.0,0.00554349832237,0.00918912235647,-0.0197490323335,0.771612942219,-0.208990603685,-9.97421550751,0.0,0.0
2019/02/01/15:55:56.444376,1923,1549058156,444201372,imu,1233093374.83,0.0,0.0,0.0,0.00564849330112,0.00816089473665,-0.0211493112147,0.652441740036,-0.275188326836,-9.78076267242,0.0,0.0
2019/02/01/15:55:56.464210,1924,1549058156,464074685,imu,1233093374.85,0.0,0.0,0.0,0.0105496710166,0.00503671774641,-0.0227708499879,0.752624690533,-0.225994229317,-9.76547336578,0.0,0.0
2019/02/01/15:55:56.484264,1925,1549058156,484074690,imu,1233093374.87,0.0,0.0,0.0,0.0167346410453,0.00384960207157,-0.0236679576337,0.618681192398,-0.26364839077,-9.6454706192,0.0,0.0
2019/02/01/15:55:56.504207,1926,1549058156,503947834,imu,1233093374.89,0.0,0.0,0.0,0.00884900614619,0.000584953580983,-0.0256552994251,0.746986150742,-0.256353139877,-9.77459812164,0.0,0.0
2019/02/01/15:55:56.524120,1927,1549058156,523994796,imu,1233093374.91,0.0,0.0,0.0,0.00834746379405,0.000234125967836,-0.02848380059,0.783172726631,-0.121694929898,-9.66680240631,0.0,0.0
2019/02/01/15:55:56.544140,1928,1549058156,544048196,imu,1233093374.93,0.0,0.0,0.0,-0.000892271054909,-0.000556715822313,-0.0291220676154,0.73991394043,-0.0713198110461,-9.75234603882,0.0,0.0
2019/02/01/15:55:56.564035,1929,1549058156,563892088,imu,1233093374.95,0.0,0.0,0.0,0.00076148629887,0.001316652284,-0.033283572644,0.915684938431,-0.35423129797,-9.88425445557,0.0,0.0
2019/02/01/15:55:56.584012,1930,1549058156,583903016,imu,1233093374.97,0.0,0.0,0.0,-0.00387862045318,0.00158771232236,-0.0364685840905,0.642581105232,-0.183192178607,-9.86094856262,0.0,0.0
2019/02/01/15:55:56.603993,1931,1549058156,603833577,imu,1233093374.99,0.0,0.0,0.0,-0.00557846715674,0.0025032304693,-0.0379883944988,0.712234675884,-0.34008949995,-9.89973068237,0.0,0.0
2019/02/01/15:55:56.624155,1932,1549058156,624046641,imu,1233093375.01,0.0,0.0,0.0,-0.00052601529751,0.00574964424595,-0.0410997346044,0.74951004982,-0.148169517517,-9.84654808044,0.0,0.0
2019/02/01/15:55:56.643974,1933,1549058156,643778677,imu,1233093375.03,0.0,0.0,0.0,-0.00544439908117,0.00455409381539,-0.0427194908261,0.653507947922,-0.384580075741,-9.74784755707,0.0,0.0
2019/02/01/15:55:56.663924,1934,1549058156,663743395,imu,1233093375.05,0.0,0.0,0.0,-0.00209904974326,0.0018078306457,-0.0445404015481,0.601472139359,-0.274288952351,-9.65700531006,0.0,0.0
2019/02/01/15:55:56.683842,1935,1549058156,683727170,imu,1233093375.07,0.0,0.0,0.0,0.00422683777288,0.00211653788574,-0.0453998222947,0.650632143021,-0.482099413872,-9.73016357422,0.0,0.0
2019/02/01/15:55:56.703745,1936,1549058156,703654812,imu,1233093375.09,0.0,0.0,0.0,-0.00107252888847,0.00186370592564,-0.0473839975893,0.610947012901,-0.233315348625,-9.97207641602,0.0,0.0
2019/02/01/15:55:56.723894,1937,1549058156,723694739,imu,1233093375.11,0.0,0.0,0.0,0.000302565458696,0.000779125024565,-0.0491706579924,0.73691380024,-0.213293105364,-9.79725265503,0.0,0.0
2019/02/01/15:55:56.743805,1938,1549058156,743672644,imu,1233093375.13,0.0,0.0,0.0,0.00218031276017,0.00424304837361,-0.0476385168731,0.77471113205,0.0141150038689,-9.86081504822,0.0,0.0
2019/02/01/15:55:56.763770,1939,1549058156,763648832,imu,1233093375.15,0.0,0.0,0.0,-0.0050592366606,0.0041010659188,-0.0488630160689,0.79139995575,-0.413271874189,-9.96684646606,0.0,0.0
2019/02/01/15:55:56.783819,1940,1549058156,783688727,imu,1233093375.17,0.0,0.0,0.0,-0.00374777335674,0.00776804052293,-0.0504289641976,0.773113191128,-0.208821117878,-10.0054569244,0.0,0.0
2019/02/01/15:55:56.803641,1941,1549058156,803520513,imu,1233093375.19,0.0,0.0,0.0,-0.00371553865261,0.00937836524099,-0.0522039160132,0.665829241276,-0.166853800416,-9.91285610199,0.0,0.0
2019/02/01/15:55:56.823632,1942,1549058156,823532135,imu,1233093375.21,0.0,0.0,0.0,-0.00668417755514,0.00893543846905,-0.0569399744272,0.641121268272,-0.32075303793,-9.77349472046,0.0,0.0
2019/02/01/15:55:56.843709,1943,1549058156,843528379,imu,1233093375.23,0.0,0.0,0.0,-0.00101373379584,0.00712724914774,-0.0594864711165,0.610855937004,-0.343480736017,-9.60015487671,0.0,0.0
2019/02/01/15:55:56.863617,1944,1549058156,863445646,imu,1233093375.25,0.0,0.0,0.0,0.000378935917979,0.00229612691328,-0.0624262318015,0.710844755173,-0.37618380785,-9.6113653183,0.0,0.0
2019/02/01/15:55:56.883636,1945,1549058156,883449335,imu,1233093375.27,0.0,0.0,0.0,0.00595412263647,-0.000435526540969,-0.0656324923038,0.677661836147,-0.532458662987,-9.50750923157,0.0,0.0
2019/02/01/15:55:56.903379,1946,1549058156,903228683,imu,1233093375.29,0.0,0.0,0.0,0.00133262714371,-0.00283629214391,-0.0664912611246,0.789957046509,-0.202351436019,-9.6106967926,0.0,0.0
2019/02/01/15:55:56.923456,1947,1549058156,923321735,imu,1233093375.31,0.0,0.0,0.0,0.00985330250114,-0.00441663758829,-0.0675657987595,0.746537804604,-0.295674800873,-9.76336860657,0.0,0.0
2019/02/01/15:55:56.943637,1948,1549058156,943434484,imu,1233093375.33,0.0,0.0,0.0,-0.00136590132024,-0.00200083013624,-0.0678332671523,0.779339671135,0.121611826122,-9.79469871521,0.0,0.0
2019/02/01/15:55:56.963334,1949,1549058156,963196596,imu,1233093375.35,0.0,0.0,0.0,-0.00294643361121,-0.00298614008352,-0.0667861402035,0.787331461906,0.178120136261,-9.71431159973,0.0,0.0
2019/02/01/15:55:56.983479,1950,1549058156,983352946,imu,1233093375.37,0.0,0.0,0.0,0.00128925498575,0.000760549562983,-0.0615658797324,0.851538836956,0.0857306569815,-10.053940773,0.0,0.0
2019/02/01/15:55:57.003321,1951,1549058157,3129015,imu,1233093375.39,0.0,0.0,0.0,-0.00479804351926,0.00157953216694,-0.0612842589617,0.693001866341,0.115366511047,-10.0360717773,0.0,0.0
2019/02/01/15:55:57.023381,1952,1549058157,23260762,imu,1233093375.41,0.0,0.0,0.0,-0.00442137289792,0.00272073433734,-0.0594422034919,0.805485963821,0.134060174227,-9.84219837189,0.0,0.0
2019/02/01/15:55:57.043456,1953,1549058157,43243067,imu,1233093375.43,0.0,0.0,0.0,-0.00235776766203,0.00356874288991,-0.0552199855447,0.741613149643,0.180369257927,-9.78746891022,0.0,0.0
2019/02/01/15:55:57.063178,1954,1549058157,63072687,imu,1233093375.45,0.0,0.0,0.0,0.00284702074714,0.00189734750893,-0.0561951473355,0.795280337334,-0.0607225894928,-9.68852329254,0.0,0.0
2019/02/01/15:55:57.084419,1955,1549058157,84215107,imu,1233093375.47,0.0,0.0,0.0,0.00931998714805,0.0032947959844,-0.0528639927506,0.716148734093,0.0257884897292,-9.7501077652,0.0,0.0
2019/02/01/15:55:57.103443,1956,1549058157,103321298,imu,1233093375.49,0.0,0.0,0.0,0.00706458929926,0.00298183457926,-0.0542347691953,0.735715508461,0.0342337600887,-9.75341796875,0.0,0.0
2019/02/01/15:55:57.124309,1957,1549058157,124090956,imu,1233093375.51,0.0,0.0,0.0,0.009566295892,0.00464125350118,-0.0528616681695,0.7308152318,0.108524061739,-9.92249965668,0.0,0.0
2019/02/01/15:55:57.144273,1958,1549058157,144088723,imu,1233093375.53,0.0,0.0,0.0,0.00805663410574,0.00530659360811,-0.0524617172778,0.632235467434,0.132944002748,-9.80351352692,0.0,0.0
2019/02/01/15:55:57.164208,1959,1549058157,164008120,imu,1233093375.55,0.0,0.0,0.0,0.00414942577481,0.00418111914769,-0.0506813675165,0.453469902277,0.312737137079,-9.79355335236,0.0,0.0
2019/02/01/15:55:57.184065,1960,1549058157,183939914,imu,1233093375.57,0.0,0.0,0.0,0.00416709156707,0.00192998652346,-0.0487787947059,0.426100581884,0.0384766981006,-9.86572551727,0.0,0.0
2019/02/01/15:55:57.204480,1961,1549058157,204034196,imu,1233093375.59,0.0,0.0,0.0,0.00164161482826,0.00231889775023,-0.0467229634523,0.268198788166,0.362496346235,-9.63802051544,0.0,0.0
2019/02/01/15:55:57.224010,1962,1549058157,223897149,imu,1233093375.61,0.0,0.0,0.0,0.000191844126675,-0.00180224573705,-0.0465047508478,0.278104573488,0.147569254041,-9.62584686279,0.0,0.0
2019/02/01/15:55:57.244068,1963,1549058157,243945304,imu,1233093375.63,0.0,0.0,0.0,0.00876548700035,-0.000920079415664,-0.0452149361372,0.449275106192,-0.0555457659066,-9.76483631134,0.0,0.0
2019/02/01/15:55:57.264632,1964,1549058157,264134997,imu,1233093375.65,0.0,0.0,0.0,0.0056510088034,0.00344628794119,-0.0423142313957,0.446071356535,-0.0543164759874,-10.0220880508,0.0,0.0
2019/02/01/15:55:57.284174,1965,1549058157,283975096,imu,1233093375.67,0.0,0.0,0.0,0.0103432852775,0.00487893680111,-0.041919823736,0.537100851536,0.13368460536,-10.084227562,0.0,0.0
2019/02/01/15:55:57.304578,1966,1549058157,303781311,imu,1233093375.69,0.0,0.0,0.0,0.0103757567704,0.0103760417551,-0.0402654521167,0.647924602032,0.0738077834249,-9.87622261047,0.0,0.0
2019/02/01/15:55:57.324039,1967,1549058157,323783202,imu,1233093375.71,0.0,0.0,0.0,-0.00515944277868,0.0105814728886,-0.0390862897038,0.420139461756,0.221962496638,-9.84824085236,0.0,0.0
2019/02/01/15:55:57.343996,1968,1549058157,343834104,imu,1233093375.73,0.0,0.0,0.0,-0.00306160235777,0.00871996022761,-0.0364475287497,0.379283607006,0.176480814815,-9.66161727905,0.0,0.0
2019/02/01/15:55:57.363858,1969,1549058157,363708174,imu,1233093375.75,0.0,0.0,0.0,0.000219984241994,0.00849997252226,-0.0329885445535,0.332480102777,0.373120218515,-9.63126468658,0.0,0.0
2019/02/01/15:55:57.383943,1970,1549058157,383773567,imu,1233093375.77,0.0,0.0,0.0,-0.00561027554795,0.00333045143634,-0.030395116657,0.291999876499,0.415103763342,-9.53881168365,0.0,0.0
2019/02/01/15:55:57.403936,1971,1549058157,403727914,imu,1233093375.79,0.0,0.0,0.0,-0.00351095711812,0.0018355975626,-0.0292400661856,0.215453982353,0.147473663092,-9.57743644714,0.0,0.0
2019/02/01/15:55:57.423887,1972,1549058157,423735393,imu,1233093375.81,0.0,0.0,0.0,-0.00937700644135,-0.00235179648735,-0.0275896675885,0.142570137978,0.0690538361669,-9.94130325317,0.0,0.0
2019/02/01/15:55:57.443758,1973,1549058157,443619999,imu,1233093375.83,0.0,0.0,0.0,-0.00145601923577,-0.000996607588604,-0.0223451666534,0.292976766825,0.309090405703,-10.0451545715,0.0,0.0
2019/02/01/15:55:57.463782,1974,1549058157,463588774,imu,1233093375.85,0.0,0.0,0.0,-0.00664465455338,7.21953692846e-05,-0.0202446170151,0.283585369587,-0.0962181538343,-9.99644470215,0.0,0.0
2019/02/01/15:55:57.483777,1975,1549058157,483582039,imu,1233093375.87,0.0,0.0,0.0,-0.0107010100037,-0.00141025916673,-0.0194488950074,0.268939822912,0.167888224125,-10.1670866013,0.0,0.0
2019/02/01/15:55:57.503788,1976,1549058157,503636078,imu,1233093375.89,0.0,0.0,0.0,-0.00717499107122,0.00248324940912,-0.0195265039802,0.264663815498,0.238076388836,-9.88973045349,0.0,0.0
2019/02/01/15:55:57.523644,1977,1549058157,523536771,imu,1233093375.91,0.0,0.0,0.0,-0.0099664144218,-0.000523909111507,-0.0182001143694,0.0543218553066,0.192265853286,-9.64770507812,0.0,0.0
2019/02/01/15:55:57.543690,1978,1549058157,543498073,imu,1233093375.93,0.0,0.0,0.0,-0.00829422473907,-0.00045684381621,-0.0157418567687,0.257132291794,0.158033832908,-9.63565444946,0.0,0.0
2019/02/01/15:55:57.563587,1979,1549058157,563441496,imu,1233093375.95,0.0,0.0,0.0,-0.00123385642655,0.000209084770177,-0.0138855986297,0.225340098143,0.306598454714,-9.73861885071,0.0,0.0
2019/02/01/15:55:57.583824,1980,1549058157,583669154,imu,1233093375.97,0.0,0.0,0.0,-0.00208495347761,-0.00167496036738,-0.0103334859014,0.14940276742,0.227093368769,-9.647397995,0.0,0.0
2019/02/01/15:55:57.603484,1981,1549058157,603324466,imu,1233093375.99,0.0,0.0,0.0,0.00682435603812,-0.000613191688899,-0.00992364436388,0.260184913874,0.46611097455,-9.81657028198,0.0,0.0
2019/02/01/15:55:57.623427,1982,1549058157,623296235,imu,1233093376.01,0.0,0.0,0.0,0.00616438826546,-0.000508850032929,-0.00664387177676,0.127670794725,0.515511095524,-9.70744895935,0.0,0.0
2019/02/01/15:55:57.643440,1983,1549058157,643257129,imu,1233093376.03,0.0,0.0,0.0,-0.00156339362729,-0.00308877322823,-0.00325336679816,0.105926625431,0.337053775787,-9.61242294312,0.0,0.0
2019/02/01/15:55:57.663466,1984,1549058157,663256388,imu,1233093376.05,0.0,0.0,0.0,-0.00521956104785,-0.00264648813754,-0.00225705932826,0.179864197969,0.32696184516,-9.85648918152,0.0,0.0
2019/02/01/15:55:57.683544,1985,1549058157,683360600,imu,1233093376.07,0.0,0.0,0.0,-0.00215399242006,-0.00204876903445,-0.000527048483491,0.143041938543,0.48909547925,-9.76504802704,0.0,0.0
2019/02/01/15:55:57.703405,1986,1549058157,703246165,imu,1233093376.09,0.0,0.0,0.0,-0.00310511351563,-0.00285037653521,0.00137611106038,0.240375250578,0.233849838376,-9.92361831665,0.0,0.0
2019/02/01/15:55:57.723370,1987,1549058157,723221123,imu,1233093376.11,0.0,0.0,0.0,0.00283360201865,0.000994747970253,0.00189029052854,0.164611369371,-0.0721497386694,-9.87425422668,0.0,0.0
2019/02/01/15:55:57.743246,1988,1549058157,743112186,imu,1233093376.13,0.0,0.0,0.0,0.00972059182823,0.00243218336254,0.00158975925297,0.0673369467258,0.0931670218706,-10.0820178986,0.0,0.0
2019/02/01/15:55:57.763337,1989,1549058157,763193284,imu,1233093376.15,0.0,0.0,0.0,0.00828964076936,-4.08901250921e-05,-0.000347920693457,0.21283364296,0.182804808021,-10.0424976349,0.0,0.0
2019/02/01/15:55:57.783338,1990,1549058157,783207965,imu,1233093376.17,0.0,0.0,0.0,0.0133765619248,0.00168476172257,-0.000811275094748,0.193118602037,0.0547183379531,-9.88192558289,0.0,0.0
2019/02/01/15:55:57.804397,1991,1549058157,804165829,imu,1233093376.19,0.0,0.0,0.0,0.0124573893845,-0.000493347062729,0.000830113887787,0.175649911165,0.0664829313755,-9.73045921326,0.0,0.0
2019/02/01/15:55:57.824233,1992,1549058157,824090491,imu,1233093376.21,0.0,0.0,0.0,0.0169578827918,-0.00529770273715,-0.000269963406026,0.305280417204,0.0556158721447,-9.60382080078,0.0,0.0
2019/02/01/15:55:57.844320,1993,1549058157,844147436,imu,1233093376.23,0.0,0.0,0.0,0.0113780768588,-0.00487886369228,0.00184807367623,0.212682008743,0.116355985403,-9.56964492798,0.0,0.0
2019/02/01/15:55:57.864229,1994,1549058157,864079596,imu,1233093376.25,0.0,0.0,0.0,0.00949344038963,-0.00675856415182,0.00192119833082,0.218049675226,0.297320187092,-9.55794334412,0.0,0.0
2019/02/01/15:55:57.884175,1995,1549058157,884058119,imu,1233093376.27,0.0,0.0,0.0,0.00785059202462,-0.00710765365511,0.0028188303113,0.153315514326,0.272314935923,-9.60044574738,0.0,0.0
2019/02/01/15:55:57.904304,1996,1549058157,904173312,imu,1233093376.29,0.0,0.0,0.0,0.00412733014673,-0.00375107396394,0.00269564427435,0.289339661598,0.0618411637843,-9.64581108093,0.0,0.0
2019/02/01/15:55:57.924162,1997,1549058157,923926365,imu,1233093376.31,0.0,0.0,0.0,-0.00634661130607,-0.00614398950711,0.00224813912064,0.0915040075779,-0.00581119814888,-9.70098495483,0.0,0.0
2019/02/01/15:55:57.943987,1998,1549058157,943791195,imu,1233093376.33,0.0,0.0,0.0,-0.00407141493633,-0.00459436979145,0.00187153089792,0.173644512892,-0.0666810125113,-9.6524848938,0.0,0.0
2019/02/01/15:55:57.963993,1999,1549058157,963835541,imu,1233093376.35,0.0,0.0,0.0,-0.000200225331355,-0.00364320422523,0.00113190570846,0.300965249538,-0.241637215018,-9.8533706665,0.0,0.0
2019/02/01/15:55:57.984128,2000,1549058157,983952384,imu,1233093376.37,0.0,0.0,0.0,-0.000140095478855,-0.00551080983132,0.00249150907621,0.175160527229,-0.0712650716305,-9.85792922974,0.0,0.0
2019/02/01/15:55:58.004046,2001,1549058158,3862758,imu,1233093376.39,0.0,0.0,0.0,0.00796465482563,-0.00254751369357,0.00292416708544,0.249715745449,0.0936254858971,-9.91599082947,0.0,0.0
2019/02/01/15:55:58.023949,2002,1549058158,23744876,imu,1233093376.41,0.0,0.0,0.0,0.00951672159135,-0.00179533811752,0.00319162104279,0.29746812582,0.0796669274569,-9.85369300842,0.0,0.0
2019/02/01/15:55:58.043913,2003,1549058158,43754510,imu,1233093376.43,0.0,0.0,0.0,-0.00388178019784,-0.000491079408675,0.00357114337385,0.209568351507,0.294517964125,-9.84378147125,0.0,0.0
2019/02/01/15:55:58.063775,2004,1549058158,63639889,imu,1233093376.45,0.0,0.0,0.0,-0.00768480682746,-5.02805341966e-05,0.00448772218078,0.215864419937,0.270919114351,-9.68518352509,0.0,0.0
2019/02/01/15:55:58.083688,2005,1549058158,83590876,imu,1233093376.47,0.0,0.0,0.0,-0.00698986183852,-0.000192379055079,0.00422745384276,0.188564240932,0.00211158022285,-9.48121166229,0.0,0.0
2019/02/01/15:55:58.103745,2006,1549058158,103595440,imu,1233093376.49,0.0,0.0,0.0,-0.00567129813135,-0.000648153072689,0.00219406699762,0.117590241134,-0.00847143121064,-9.51468372345,0.0,0.0
2019/02/01/15:55:58.123720,2007,1549058158,123549954,imu,1233093376.51,0.0,0.0,0.0,-0.00239559868351,-0.00142061850056,0.0020915735513,0.160801619291,-0.0382048264146,-9.57512569427,0.0,0.0
2019/02/01/15:55:58.143594,2008,1549058158,143472896,imu,1233093376.53,0.0,0.0,0.0,0.00382705405354,0.000798077904619,0.00200015539303,0.336898416281,-0.164914131165,-9.73287010193,0.0,0.0
2019/02/01/15:55:58.163762,2009,1549058158,163626824,imu,1233093376.55,0.0,0.0,0.0,0.00703432830051,-0.000595755467657,0.00139680877328,0.383668959141,0.168611422181,-9.9706363678,0.0,0.0
2019/02/01/15:55:58.183645,2010,1549058158,183451888,imu,1233093376.57,0.0,0.0,0.0,0.00974143482745,0.00247010635212,0.00191068090498,0.275757789612,0.215503618121,-9.82083129883,0.0,0.0
2019/02/01/15:55:58.203551,2011,1549058158,203424887,imu,1233093376.59,0.0,0.0,0.0,0.00751378946006,0.00212833983824,0.00156651902944,0.418547362089,0.32771345973,-9.98067760468,0.0,0.0
2019/02/01/15:55:58.223887,2012,1549058158,223711345,imu,1233093376.61,0.0,0.0,0.0,0.00702788121998,0.00549452425912,0.00360494945198,0.302012175322,0.253395110369,-9.87307739258,0.0,0.0
2019/02/01/15:55:58.243541,2013,1549058158,243380522,imu,1233093376.63,0.0,0.0,0.0,0.000801703776233,0.00347396638244,0.00215652771294,0.186316788197,0.0482964254916,-9.83270072937,0.0,0.0
2019/02/01/15:55:58.263899,2014,1549058158,263590077,imu,1233093376.65,0.0,0.0,0.0,-0.00351072405465,0.00435990840197,0.0010328120552,0.42918586731,0.212999016047,-9.96844291687,0.0,0.0
2019/02/01/15:55:58.283682,2015,1549058158,283497087,imu,1233093376.67,0.0,0.0,0.0,0.00226042722352,0.00498255062848,0.000131123699248,0.176063001156,0.0901823416352,-9.86835002899,0.0,0.0
2019/02/01/15:55:58.304114,2016,1549058158,303545622,imu,1233093376.69,0.0,0.0,0.0,-0.0017716891598,0.00332224648446,-0.00159110873938,0.218808054924,-0.1647285074,-10.0438289642,0.0,0.0
2019/02/01/15:55:58.323543,2017,1549058158,323319271,imu,1233093376.71,0.0,0.0,0.0,0.00416119210422,0.00248593348078,-0.00464470777661,0.300534307957,-0.393428236246,-9.78681850433,0.0,0.0
2019/02/01/15:55:58.343388,2018,1549058158,343204886,imu,1233093376.73,0.0,0.0,0.0,0.0129771269858,0.00224748812616,-0.00544985197484,0.188025027514,-0.396273046732,-9.66234207153,0.0,0.0
2019/02/01/15:55:58.363285,2019,1549058158,363154091,imu,1233093376.75,0.0,0.0,0.0,0.0188447218388,-0.0014661247842,-0.00847231782973,0.23614320159,-0.352330595255,-9.69457626343,0.0,0.0
2019/02/01/15:55:58.383477,2020,1549058158,383314212,imu,1233093376.77,0.0,0.0,0.0,0.0274509694427,-0.00550820631906,-0.0106187136844,0.292576491833,-0.26546344161,-9.61942100525,0.0,0.0
2019/02/01/15:55:58.403358,2021,1549058158,403209377,imu,1233093376.79,0.0,0.0,0.0,0.029343912378,-0.00383652653545,-0.0110381171107,0.255797207355,-0.229329705238,-9.70969200134,0.0,0.0
2019/02/01/15:55:58.424446,2022,1549058158,424248792,imu,1233093376.81,0.0,0.0,0.0,0.0246640183032,-0.00312632648274,-0.0139671433717,0.269237518311,-0.077406398952,-9.63042640686,0.0,0.0
2019/02/01/15:55:58.443208,2023,1549058158,443073108,imu,1233093376.83,0.0,0.0,0.0,0.010596643202,-0.00530539732426,-0.0172969531268,0.0440720580518,0.0407642796636,-9.61234855652,0.0,0.0
2019/02/01/15:55:58.464310,2024,1549058158,464102935,imu,1233093376.85,0.0,0.0,0.0,-0.00281434785575,-0.00846966356039,-0.0168053302914,0.0641329437494,-0.231339588761,-9.86171245575,0.0,0.0
2019/02/01/15:55:58.484209,2025,1549058158,484093176,imu,1233093376.87,0.0,0.0,0.0,0.0123487664387,-0.00283975456841,-0.0212096609175,0.26785159111,-0.660805165768,-10.1059589386,0.0,0.0
2019/02/01/15:55:58.504148,2026,1549058158,503953228,imu,1233093376.89,0.0,0.0,0.0,0.0146496919915,-0.00151628104504,-0.0251891184598,-0.0609009042382,-0.646441757679,-9.97469425201,0.0,0.0
2019/02/01/15:55:58.524132,2027,1549058158,523995136,imu,1233093376.91,0.0,0.0,0.0,0.0193781591952,-0.0019472889835,-0.0294725317508,0.441255748272,-0.530016362667,-10.3691520691,0.0,0.0
2019/02/01/15:55:58.544313,2028,1549058158,544115279,imu,1233093376.93,0.0,0.0,0.0,0.0258301477879,0.00337824877352,-0.0318185798824,0.0821471661329,-0.427983671427,-10.0461082458,0.0,0.0
2019/02/01/15:55:58.564169,2029,1549058158,563952406,imu,1233093376.95,0.0,0.0,0.0,0.0170718431473,-0.00114253594074,-0.0323922708631,0.109490633011,-0.392503291368,-9.85197353363,0.0,0.0
2019/02/01/15:55:58.584117,2030,1549058158,583785665,imu,1233093376.97,0.0,0.0,0.0,0.0133274514228,0.000494754058309,-0.0359858833253,0.231057792902,-0.254236578941,-9.62290763855,0.0,0.0
2019/02/01/15:55:58.603960,2031,1549058158,603756284,imu,1233093376.99,0.0,0.0,0.0,-0.000170260522282,-0.00264971377328,-0.036903064698,-0.000666888430715,-0.184387981892,-9.51106452942,0.0,0.0
2019/02/01/15:55:58.624114,2032,1549058158,623886939,imu,1233093377.01,0.0,0.0,0.0,0.00849465094507,-0.00415784725919,-0.0399005711079,0.125810429454,-0.545426428318,-9.58742809296,0.0,0.0
2019/02/01/15:55:58.643845,2033,1549058158,643668659,imu,1233093377.03,0.0,0.0,0.0,0.0136738531291,-0.00646373070776,-0.0452607050538,0.0668228641152,-0.508381307125,-9.71246910095,0.0,0.0
2019/02/01/15:55:58.663939,2034,1549058158,663792764,imu,1233093377.05,0.0,0.0,0.0,0.00214772904292,-0.00810348428786,-0.0454138256609,-0.146346971393,-0.53259575367,-9.73229122162,0.0,0.0
2019/02/01/15:55:58.683892,2035,1549058158,683754023,imu,1233093377.07,0.0,0.0,0.0,0.0192430783063,-0.00669640116394,-0.0481507107615,-0.148721128702,-0.461164027452,-9.91012763977,0.0,0.0
2019/02/01/15:55:58.703761,2036,1549058158,703657745,imu,1233093377.09,0.0,0.0,0.0,0.0169996395707,-0.00556963775307,-0.0521354191005,-0.286303550005,-0.35431650281,-9.92639064789,0.0,0.0
2019/02/01/15:55:58.723961,2037,1549058158,723727938,imu,1233093377.11,0.0,0.0,0.0,0.0111459810287,-0.00655409134924,-0.0550356097519,-0.21476714313,-0.498762756586,-9.69093036652,0.0,0.0
2019/02/01/15:55:58.743833,2038,1549058158,743658292,imu,1233093377.13,0.0,0.0,0.0,0.00980058219284,-0.00837024580687,-0.0571859776974,-0.142878428102,-0.427903860807,-9.84612941742,0.0,0.0
2019/02/01/15:55:58.763917,2039,1549058158,763707155,imu,1233093377.15,0.0,0.0,0.0,0.0100725358352,-0.00426209811121,-0.0604538582265,-0.137092903256,-0.409585505724,-9.93015575409,0.0,0.0
2019/02/01/15:55:58.783855,2040,1549058158,783662466,imu,1233093377.17,0.0,0.0,0.0,0.00878764409572,-0.000296166283078,-0.0635416805744,0.117211669683,-0.467133671045,-9.86263942719,0.0,0.0
2019/02/01/15:55:58.803791,2041,1549058158,803600108,imu,1233093377.19,0.0,0.0,0.0,0.00248100981116,0.00398475956172,-0.066798530519,0.0202038697898,-0.530744075775,-9.8130979538,0.0,0.0
2019/02/01/15:55:58.823698,2042,1549058158,823499443,imu,1233093377.21,0.0,0.0,0.0,0.00584245985374,0.00305156246759,-0.0690317228436,0.000761602073908,-0.549955248833,-9.62678909302,0.0,0.0
2019/02/01/15:55:58.843662,2043,1549058158,843548141,imu,1233093377.23,0.0,0.0,0.0,0.0123972836882,0.00363468937576,-0.0716307610273,-0.0121921785176,-0.318675220013,-9.63181209564,0.0,0.0
2019/02/01/15:55:58.863747,2044,1549058158,863643077,imu,1233093377.25,0.0,0.0,0.0,0.0149262957275,0.00272924639285,-0.0714700967073,-0.199803501368,-0.33883073926,-9.52329158783,0.0,0.0
2019/02/01/15:55:58.883622,2045,1549058158,883444263,imu,1233093377.27,0.0,0.0,0.0,0.0138940857723,-0.00147535686847,-0.0709422081709,-0.149920731783,-0.0387292131782,-9.45547771454,0.0,0.0
2019/02/01/15:55:58.903609,2046,1549058158,903386948,imu,1233093377.29,0.0,0.0,0.0,0.00516606122255,-0.00302604003809,-0.0681137889624,-0.219957485795,-0.0153354164213,-9.66038417816,0.0,0.0
2019/02/01/15:55:58.923624,2047,1549058158,923491201,imu,1233093377.31,0.0,0.0,0.0,-0.00334009202197,-0.00580790545791,-0.0654620528221,-0.154850780964,0.0201659798622,-9.95629405975,0.0,0.0
2019/02/01/15:55:58.943449,2048,1549058158,943284117,imu,1233093377.33,0.0,0.0,0.0,-0.00470429239795,-0.0057800905779,-0.062570348382,-0.0910385102034,0.0713326781988,-9.87843513489,0.0,0.0
2019/02/01/15:55:58.963527,2049,1549058158,963381612,imu,1233093377.35,0.0,0.0,0.0,-0.00886368844658,-0.00366833806038,-0.0588920302689,-0.178874328732,-0.0478613562882,-9.83682823181,0.0,0.0
2019/02/01/15:55:58.983452,2050,1549058158,983217322,imu,1233093377.37,0.0,0.0,0.0,-0.0106202214956,-0.00176603603177,-0.055587362498,-0.0604714602232,-0.0464588776231,-10.0472145081,0.0,0.0
2019/02/01/15:55:59.003568,2051,1549058159,3304732,imu,1233093377.39,0.0,0.0,0.0,-0.00673291739076,0.00134469917975,-0.0527474656701,-0.0245694685727,-0.10409399122,-10.1502742767,0.0,0.0
2019/02/01/15:55:59.023385,2052,1549058159,23247682,imu,1233093377.41,0.0,0.0,0.0,-0.00810931995511,0.00298568606377,-0.0512040741742,-0.0981214642525,-0.120014131069,-10.2173404694,0.0,0.0
2019/02/01/15:55:59.044383,2053,1549058159,44205267,imu,1233093377.43,0.0,0.0,0.0,-0.00778909306973,0.00702223321423,-0.0476033315063,-0.0827213078737,0.0923037603498,-10.1603565216,0.0,0.0
2019/02/01/15:55:59.063305,2054,1549058159,63194673,imu,1233093377.45,0.0,0.0,0.0,-0.00368322362192,0.00948063191026,-0.045930121094,-0.0530915856361,0.189044982195,-9.97585868835,0.0,0.0
2019/02/01/15:55:59.084360,2055,1549058159,84110321,imu,1233093377.47,0.0,0.0,0.0,-0.0131372818723,0.00466791260988,-0.04228419438,-0.207959890366,0.261688172817,-9.5818157196,0.0,0.0
2019/02/01/15:55:59.104203,2056,1549058159,104066397,imu,1233093377.49,0.0,0.0,0.0,-0.0147710246965,0.00165356765501,-0.0417050942779,-0.171073004603,0.0503763966262,-9.42874336243,0.0,0.0
2019/02/01/15:55:59.124308,2057,1549058159,124161672,imu,1233093377.51,0.0,0.0,0.0,-0.00695793936029,-0.00171255832538,-0.0401508659124,-0.15456674993,0.113327302039,-9.33536529541,0.0,0.0
2019/02/01/15:55:59.144224,2058,1549058159,144090806,imu,1233093377.53,0.0,0.0,0.0,-0.0108201047406,-0.00318741775118,-0.0371510758996,-0.140711009502,0.0799347087741,-9.57564163208,0.0,0.0
2019/02/01/15:55:59.164193,2059,1549058159,163954474,imu,1233093377.55,0.0,0.0,0.0,-0.00889499578625,-0.00484169088304,-0.0358633995056,-0.0183325503021,-0.0227858480066,-9.69043827057,0.0,0.0
2019/02/01/15:55:59.184212,2060,1549058159,184040096,imu,1233093377.57,0.0,0.0,0.0,-0.00045714591397,-0.00532749760896,-0.0335356816649,-0.131059125066,0.127179697156,-9.84307289124,0.0,0.0
2019/02/01/15:55:59.203977,2061,1549058159,203886967,imu,1233093377.59,0.0,0.0,0.0,0.00354514177889,-0.00363719603047,-0.0316085256636,0.00688720867038,0.292718946934,-9.9497795105,0.0,0.0
2019/02/01/15:55:59.223907,2062,1549058159,223770457,imu,1233093377.61,0.0,0.0,0.0,-1.32288841996e-05,-0.00606338493526,-0.030208978802,-0.0943776145577,0.288732737303,-9.70806312561,0.0,0.0
2019/02/01/15:55:59.243901,2063,1549058159,243785331,imu,1233093377.63,0.0,0.0,0.0,-0.00319441477768,-0.00499183498323,-0.028952896595,-0.00722235627472,0.0791136324406,-9.62344932556,0.0,0.0
2019/02/01/15:55:59.264003,2064,1549058159,263740233,imu,1233093377.65,0.0,0.0,0.0,-0.000270132208243,-0.00392154185101,-0.0261813551188,-0.196854010224,0.466315299273,-9.70776748657,0.0,0.0
2019/02/01/15:55:59.284186,2065,1549058159,283999188,imu,1233093377.67,0.0,0.0,0.0,-0.0103406542912,-0.00466727511957,-0.0230955965817,-0.107902787626,0.399235874414,-9.71847724915,0.0,0.0
2019/02/01/15:55:59.303813,2066,1549058159,303696740,imu,1233093377.69,0.0,0.0,0.0,0.00186068064068,-0.00338042993098,-0.0206800848246,-0.0913369953632,0.387670755386,-9.94135379791,0.0,0.0
2019/02/01/15:55:59.323894,2067,1549058159,323725827,imu,1233093377.71,0.0,0.0,0.0,-0.00397958280519,-0.00104840169661,-0.0198128335178,-0.110566295683,0.14875215292,-9.91503238678,0.0,0.0
2019/02/01/15:55:59.343682,2068,1549058159,343558238,imu,1233093377.73,0.0,0.0,0.0,-0.00179736223072,0.0021821972914,-0.0181109830737,-0.0761558264494,0.0158414971083,-9.92610454559,0.0,0.0
2019/02/01/15:55:59.363920,2069,1549058159,363754419,imu,1233093377.75,0.0,0.0,0.0,0.00734886992723,0.00500875059515,-0.0147004853934,-0.204592704773,0.150118634105,-10.0204191208,0.0,0.0
2019/02/01/15:55:59.383639,2070,1549058159,383517115,imu,1233093377.77,0.0,0.0,0.0,0.00237548258156,0.00427554082125,-0.0118755493313,-0.0713416039944,0.205889627337,-10.1065607071,0.0,0.0
2019/02/01/15:55:59.404116,2071,1549058159,403827536,imu,1233093377.79,0.0,0.0,0.0,0.00725542148575,0.00663339626044,-0.0115749146789,-0.18276655674,0.0782585442066,-9.96066188812,0.0,0.0
2019/02/01/15:55:59.423601,2072,1549058159,423481362,imu,1233093377.81,0.0,0.0,0.0,0.00459021236748,0.00450503826141,-0.0100253392011,-0.267214119434,0.104415789247,-9.67313289642,0.0,0.0
2019/02/01/15:55:59.443796,2073,1549058159,443595886,imu,1233093377.83,0.0,0.0,0.0,0.00266186404042,0.00192268472165,-0.0121905952692,-0.267682552338,-0.177744954824,-9.5208902359,0.0,0.0
2019/02/01/15:55:59.464033,2074,1549058159,463721985,imu,1233093377.85,0.0,0.0,0.0,0.00639306427911,-0.000534848601092,-0.0138288130984,-0.381584048271,-0.208784714341,-9.5505771637,0.0,0.0
2019/02/01/15:55:59.483910,2075,1549058159,483682687,imu,1233093377.87,0.0,0.0,0.0,0.0112215327099,-0.00477194460109,-0.0157168358564,-0.465062081814,-0.57580691576,-9.79502773285,0.0,0.0
2019/02/01/15:55:59.504144,2076,1549058159,503535499,imu,1233093377.89,0.0,0.0,0.0,0.0226161554456,-0.00546622369438,-0.019946295768,-0.372606098652,-0.515996158123,-9.96340370178,0.0,0.0
2019/02/01/15:55:59.523632,2077,1549058159,523500619,imu,1233093377.91,0.0,0.0,0.0,0.0212009549141,-0.0068297102116,-0.0230477973819,-0.450532913208,-0.341610878706,-9.94210147858,0.0,0.0
2019/02/01/15:55:59.543630,2078,1549058159,543423913,imu,1233093377.93,0.0,0.0,0.0,0.0175919216126,-0.00633131340146,-0.0255724303424,-0.501958429813,-0.367193371058,-9.78472232819,0.0,0.0
2019/02/01/15:55:59.563696,2079,1549058159,563506044,imu,1233093377.95,0.0,0.0,0.0,0.0230951290578,-0.00342385238037,-0.0293830446899,-0.350664108992,-0.277156800032,-9.78674793243,0.0,0.0
2019/02/01/15:55:59.583575,2080,1549058159,583393598,imu,1233093377.97,0.0,0.0,0.0,0.0154011687264,-0.00124118872918,-0.0320021510124,-0.411083638668,-0.353167116642,-9.89543628693,0.0,0.0
2019/02/01/15:55:59.603615,2081,1549058159,603399037,imu,1233093377.99,0.0,0.0,0.0,0.0142193008214,0.000695164664648,-0.0365516655147,-0.494938760996,-0.286137968302,-9.76260948181,0.0,0.0
2019/02/01/15:55:59.623569,2082,1549058159,623365530,imu,1233093378.01,0.0,0.0,0.0,0.0066638845019,-0.00155144848395,-0.0392411276698,-0.442821323872,-0.574240028858,-9.59751796722,0.0,0.0
2019/02/01/15:55:59.643436,2083,1549058159,643231544,imu,1233093378.03,0.0,0.0,0.0,0.0087046129629,-0.000110495311674,-0.0409298464656,-0.469499498606,-0.510982692242,-9.82289218903,0.0,0.0
2019/02/01/15:55:59.663289,2084,1549058159,663121127,imu,1233093378.05,0.0,0.0,0.0,0.0157196857035,-1.50217092596e-05,-0.0435922704637,-0.391765087843,-0.606373250484,-9.88236045837,0.0,0.0
2019/02/01/15:55:59.683325,2085,1549058159,683170528,imu,1233093378.07,0.0,0.0,0.0,0.0159492902458,0.000694888934959,-0.0468640215695,-0.371561437845,-0.667041480541,-9.85676002502,0.0,0.0
2019/02/01/15:55:59.703252,2086,1549058159,703109650,imu,1233093378.09,0.0,0.0,0.0,0.0198039840907,-0.000530607008841,-0.0495538152754,-0.408820301294,-0.328037112951,-9.78699874878,0.0,0.0
2019/02/01/15:55:59.723196,2087,1549058159,723080539,imu,1233093378.11,0.0,0.0,0.0,0.0208636652678,-0.000273160461802,-0.05149564147,-0.493774205446,-0.381683111191,-9.5903377533,0.0,0.0
2019/02/01/15:55:59.744304,2088,1549058159,744098887,imu,1233093378.13,0.0,0.0,0.0,0.0167990960181,-0.000787271885201,-0.0538007840514,-0.317933917046,-0.229414433241,-9.81166934967,0.0,0.0
2019/02/01/15:55:59.764375,2089,1549058159,764122746,imu,1233093378.15,0.0,0.0,0.0,0.0101825147867,0.00138190295547,-0.0541709959507,-0.42852589488,-0.530848324299,-10.0552167892,0.0,0.0
2019/02/01/15:55:59.784222,2090,1549058159,784088312,imu,1233093378.17,0.0,0.0,0.0,0.012698141858,0.00579426111653,-0.0569973438978,-0.652266144753,-0.399837762117,-9.75298213959,0.0,0.0
2019/02/01/15:55:59.804198,2091,1549058159,803993061,imu,1233093378.19,0.0,0.0,0.0,0.0064931451343,0.000844110443722,-0.0606107152998,-0.57920140028,-0.440466433764,-9.57434177399,0.0,0.0
2019/02/01/15:55:59.824347,2092,1549058159,824169735,imu,1233093378.21,0.0,0.0,0.0,0.005926173646,0.000710414140485,-0.0607885196805,-0.691248834133,-0.463024288416,-9.74056720734,0.0,0.0
2019/02/01/15:55:59.844211,2093,1549058159,844030188,imu,1233093378.23,0.0,0.0,0.0,0.0135464305058,0.00308912293985,-0.0634381473064,-0.589863836765,-0.781246542931,-9.76745319366,0.0,0.0
2019/02/01/15:55:59.864099,2094,1549058159,863931464,imu,1233093378.25,0.0,0.0,0.0,0.0184581018984,0.00331104919314,-0.0678190290928,-0.393481701612,-0.431595802307,-10.0235280991,0.0,0.0
2019/02/01/15:55:59.884237,2095,1549058159,884019262,imu,1233093378.27,0.0,0.0,0.0,0.0127459391952,0.00391357485205,-0.0698411092162,-0.431256681681,-0.494620651007,-9.93040847778,0.0,0.0
2019/02/01/15:55:59.904069,2096,1549058159,903912856,imu,1233093378.29,0.0,0.0,0.0,0.00773601513356,0.00252714660019,-0.0719773024321,-0.376463145018,-0.604708373547,-9.79988384247,0.0,0.0
2019/02/01/15:55:59.924032,2097,1549058159,923828279,imu,1233093378.31,0.0,0.0,0.0,0.0119191193953,0.00308613362722,-0.073714196682,-0.419567793608,-0.292138069868,-9.74196529388,0.0,0.0
2019/02/01/15:55:59.943813,2098,1549058159,943662269,imu,1233093378.33,0.0,0.0,0.0,-0.00206705648452,0.000492460094392,-0.074642829597,-0.533522188663,-0.423147410154,-9.89050674438,0.0,0.0
2019/02/01/15:55:59.963895,2099,1549058159,963705185,imu,1233093378.35,0.0,0.0,0.0,-0.000978955766186,0.00157575507183,-0.077675126493,-0.376500844955,-0.580229341984,-9.84312725067,0.0,0.0
2019/02/01/15:55:59.983793,2100,1549058159,983686128,imu,1233093378.37,0.0,0.0,0.0,0.0031684844289,-0.00184092530981,-0.0798184722662,-0.536283433437,-0.477956324816,-9.79643154144,0.0,0.0
2019/02/01/15:56:00.003948,2101,1549058160,3762459,imu,1233093378.39,0.0,0.0,0.0,-0.000479721842567,-0.00591213488951,-0.0803594961762,-0.382108151913,-0.617826044559,-9.86967658997,0.0,0.0
2019/02/01/15:56:00.023893,2102,1549058160,23791258,imu,1233093378.41,0.0,0.0,0.0,0.00614649709314,-0.00485219340771,-0.0818101167679,-0.388652473688,-0.606990933418,-9.97439193726,0.0,0.0
2019/02/01/15:56:00.043689,2103,1549058160,43562697,imu,1233093378.43,0.0,0.0,0.0,0.00717487093061,-0.00464454898611,-0.0845609679818,-0.309296905994,-0.566713929176,-9.85125732422,0.0,0.0
2019/02/01/15:56:00.063894,2104,1549058160,63685418,imu,1233093378.45,0.0,0.0,0.0,0.0129248928279,-0.00450247339904,-0.0867759734392,-0.355803459883,-0.732906639576,-9.66624546051,0.0,0.0
2019/02/01/15:56:00.083919,2105,1549058160,83663489,imu,1233093378.47,0.0,0.0,0.0,0.0124264424667,-0.00390809169039,-0.0881573408842,-0.350358188152,-0.461419790983,-9.65564918518,0.0,0.0
2019/02/01/15:56:00.103794,2106,1549058160,103685321,imu,1233093378.49,0.0,0.0,0.0,0.0106273433194,-0.00347637408413,-0.0893698260188,-0.396423071623,-0.429228335619,-9.76624965668,0.0,0.0
2019/02/01/15:56:00.123635,2107,1549058160,123504482,imu,1233093378.51,0.0,0.0,0.0,0.010216829367,-0.00222533731721,-0.0900287106633,-0.377501696348,-0.551645934582,-9.7527961731,0.0,0.0
2019/02/01/15:56:00.143821,2108,1549058160,143628324,imu,1233093378.53,0.0,0.0,0.0,0.00477834837511,-0.000469301594421,-0.0923947766423,-0.309406369925,-0.711743712425,-9.72966003418,0.0,0.0
2019/02/01/15:56:00.163635,2109,1549058160,163447639,imu,1233093378.55,0.0,0.0,0.0,-0.000410577078583,-0.000343349995092,-0.094646319747,-0.440517812967,-0.607108592987,-9.69759845734,0.0,0.0
2019/02/01/15:56:00.183688,2110,1549058160,183492065,imu,1233093378.57,0.0,0.0,0.0,0.00700320443138,0.000486106728204,-0.0975921228528,-0.484143674374,-0.67240267992,-9.76060771942,0.0,0.0
2019/02/01/15:56:00.203675,2111,1549058160,203482915,imu,1233093378.59,0.0,0.0,0.0,0.00378765608184,-0.00136771169491,-0.100775375962,-0.343731254339,-0.719186604023,-9.74743175507,0.0,0.0
2019/02/01/15:56:00.223653,2112,1549058160,223495053,imu,1233093378.61,0.0,0.0,0.0,0.00643781526014,0.00103589147329,-0.103527463973,-0.467143774033,-0.776487112045,-9.81554317474,0.0,0.0
2019/02/01/15:56:00.243462,2113,1549058160,243283431,imu,1233093378.63,0.0,0.0,0.0,0.00900919549167,-0.000998910050839,-0.104489542544,-0.366649746895,-0.361020594835,-9.87626552582,0.0,0.0
2019/02/01/15:56:00.263445,2114,1549058160,263333206,imu,1233093378.65,0.0,0.0,0.0,0.00152919918764,0.00170564185828,-0.10769341141,-0.486814379692,-0.682440638542,-9.70381832123,0.0,0.0
2019/02/01/15:56:00.283499,2115,1549058160,283317743,imu,1233093378.67,0.0,0.0,0.0,0.000541942776181,-0.00133448117413,-0.105686292052,-0.46793705225,-0.318583160639,-9.90737533569,0.0,0.0
2019/02/01/15:56:00.303296,2116,1549058160,303186275,imu,1233093378.69,0.0,0.0,0.0,-0.00431215809658,0.00234886258841,-0.105556346476,-0.393989115953,-0.411562472582,-10.1362056732,0.0,0.0
2019/02/01/15:56:00.323392,2117,1549058160,323274442,imu,1233093378.71,0.0,0.0,0.0,-0.00759665807709,0.00154057494365,-0.104542262852,-0.326081484556,-0.271107763052,-10.0284233093,0.0,0.0
2019/02/01/15:56:00.343315,2118,1549058160,343156737,imu,1233093378.73,0.0,0.0,0.0,-0.00501919258386,0.00201316224411,-0.103014446795,-0.461734503508,-0.336753904819,-9.89381122589,0.0,0.0
2019/02/01/15:56:00.363368,2119,1549058160,363254086,imu,1233093378.75,0.0,0.0,0.0,-0.000464630458737,-0.000963779981248,-0.0983372479677,-0.521072208881,-0.108543127775,-9.61624240875,0.0,0.0
2019/02/01/15:56:00.384623,2120,1549058160,384451794,imu,1233093378.77,0.0,0.0,0.0,-0.00114180648234,-0.00560469925404,-0.0943740159273,-0.438352614641,-0.0579128079116,-9.52374362946,0.0,0.0
2019/02/01/15:56:00.403172,2121,1549058160,403039544,imu,1233093378.79,0.0,0.0,0.0,-0.0104771889746,-0.00628392770886,-0.0879151523113,-0.603631079197,0.128365844488,-9.48886680603,0.0,0.0
2019/02/01/15:56:00.423302,2122,1549058160,423143007,imu,1233093378.81,0.0,0.0,0.0,-0.0131618957967,-0.00946198962629,-0.0842105671763,-0.493405789137,0.0856711193919,-9.46640396118,0.0,0.0
2019/02/01/15:56:00.444181,2123,1549058160,443990530,imu,1233093378.83,0.0,0.0,0.0,-0.0168654769659,-0.00926494877785,-0.0821711868048,-0.290191322565,-0.10959379375,-9.66093730927,0.0,0.0
2019/02/01/15:56:00.464513,2124,1549058160,464324321,imu,1233093378.85,0.0,0.0,0.0,-0.0295573584735,-0.00514033576474,-0.0815127342939,-0.427868634462,-0.228586733341,-9.91064834595,0.0,0.0
2019/02/01/15:56:00.484225,2125,1549058160,484032458,imu,1233093378.87,0.0,0.0,0.0,-0.0235870089382,-0.00212056888267,-0.0800106599927,-0.303141444921,-0.360778659582,-10.1527700424,0.0,0.0
2019/02/01/15:56:00.504214,2126,1549058160,504029194,imu,1233093378.89,0.0,0.0,0.0,-0.0206278897822,0.0031151403673,-0.0772911384702,-0.407035201788,-0.444164216518,-10.17623806,0.0,0.0
2019/02/01/15:56:00.524133,2127,1549058160,524031973,imu,1233093378.91,0.0,0.0,0.0,-0.0262660030276,0.00615842407569,-0.0770824700594,-0.350990980864,-0.381893247366,-10.180685997,0.0,0.0
2019/02/01/15:56:00.544093,2128,1549058160,543893323,imu,1233093378.93,0.0,0.0,0.0,-0.0140555044636,0.00965304579586,-0.0757201761007,-0.326495498419,-0.154117107391,-10.0147151947,0.0,0.0
2019/02/01/15:56:00.564145,2129,1549058160,564004660,imu,1233093378.95,0.0,0.0,0.0,-0.0162538867444,0.00847484637052,-0.0739730745554,-0.340254724026,-0.0367220006883,-9.72926235199,0.0,0.0
2019/02/01/15:56:00.583987,2130,1549058160,583885023,imu,1233093378.97,0.0,0.0,0.0,-0.0180848874152,0.00734354183078,-0.0720552355051,-0.419158101082,-0.0336375497282,-9.60069561005,0.0,0.0
2019/02/01/15:56:00.604140,2131,1549058160,603914570,imu,1233093378.99,0.0,0.0,0.0,-0.0198563989252,0.00598504580557,-0.068817935884,-0.361173808575,-0.103420294821,-9.56455135345,0.0,0.0
2019/02/01/15:56:00.624057,2132,1549058160,623801946,imu,1233093379.01,0.0,0.0,0.0,-0.025901209563,0.00298404274508,-0.0668642669916,-0.358150601387,0.0196870565414,-9.49316310883,0.0,0.0
2019/02/01/15:56:00.644262,2133,1549058160,644009224,imu,1233093379.03,0.0,0.0,0.0,-0.0167805347592,0.00499041564763,-0.0653432458639,-0.352887928486,0.0146310720593,-9.85452747345,0.0,0.0
2019/02/01/15:56:00.663920,2134,1549058160,663779491,imu,1233093379.05,0.0,0.0,0.0,-0.0120771937072,0.00388514902443,-0.0632008388638,-0.440030813217,0.000640797312371,-9.94264888763,0.0,0.0
2019/02/01/15:56:00.684180,2135,1549058160,684041443,imu,1233093379.07,0.0,0.0,0.0,-0.0150713203475,0.00394245702773,-0.062101431191,-0.306661963463,-0.153117284179,-9.78612422943,0.0,0.0
2019/02/01/15:56:00.704576,2136,1549058160,703943365,imu,1233093379.09,0.0,0.0,0.0,-0.0096866954118,0.00405279267579,-0.0609580725431,-0.307927489281,0.11911803484,-9.65062427521,0.0,0.0
2019/02/01/15:56:00.723985,2137,1549058160,723832086,imu,1233093379.11,0.0,0.0,0.0,-0.00891337543726,0.0034314901568,-0.0595767647028,-0.38159686327,0.237768724561,-9.76147460938,0.0,0.0
2019/02/01/15:56:00.743914,2138,1549058160,743654817,imu,1233093379.13,0.0,0.0,0.0,-0.0132179027423,0.00195157737471,-0.05631640926,-0.313373565674,0.0316890887916,-9.87061786652,0.0,0.0
2019/02/01/15:56:00.763992,2139,1549058160,763779547,imu,1233093379.15,0.0,0.0,0.0,-0.0194186177105,0.00222300761379,-0.0553851053119,-0.302046477795,0.0131717063487,-9.61032962799,0.0,0.0
2019/02/01/15:56:00.783975,2140,1549058160,783769511,imu,1233093379.17,0.0,0.0,0.0,-0.00620049843565,0.00468187406659,-0.0534378141165,-0.328487068415,0.466736346483,-9.80651760101,0.0,0.0
2019/02/01/15:56:00.803782,2141,1549058160,803680934,imu,1233093379.19,0.0,0.0,0.0,-0.00917438324541,0.00594428228214,-0.0510299503803,-0.318437248468,-0.0386643260717,-9.8779335022,0.0,0.0
2019/02/01/15:56:00.823907,2142,1549058160,823674703,imu,1233093379.21,0.0,0.0,0.0,-0.00192440161481,0.00777422450483,-0.0487349331379,-0.385670423508,-0.01615973562,-9.79330444336,0.0,0.0
2019/02/01/15:56:00.843720,2143,1549058160,843580164,imu,1233093379.23,0.0,0.0,0.0,0.00312912766822,0.00499435793608,-0.047223597765,-0.422296464443,0.18186853826,-9.78324890137,0.0,0.0
2019/02/01/15:56:00.863639,2144,1549058160,863465250,imu,1233093379.25,0.0,0.0,0.0,0.00801158510149,0.00188096030615,-0.0421031266451,-0.461888760328,0.0617166608572,-9.66841411591,0.0,0.0
2019/02/01/15:56:00.883649,2145,1549058160,883487540,imu,1233093379.27,0.0,0.0,0.0,0.00108972843736,0.000123524776427,-0.0396893061697,-0.398223727942,0.207620978355,-9.7880897522,0.0,0.0
2019/02/01/15:56:00.903618,2146,1549058160,903475697,imu,1233093379.29,0.0,0.0,0.0,-0.00311180669814,-0.00175983319059,-0.0375248230994,-0.528252542019,0.469155400991,-9.82610225677,0.0,0.0
2019/02/01/15:56:00.923693,2147,1549058160,923457613,imu,1233093379.31,0.0,0.0,0.0,-0.00259570172057,-0.00343246106058,-0.0330104827881,-0.447886109352,0.100471891463,-9.73606777191,0.0,0.0
2019/02/01/15:56:00.943470,2148,1549058160,943324235,imu,1233093379.33,0.0,0.0,0.0,-0.00456064334139,-0.00125108822249,-0.0293687470257,-0.347546905279,0.0195580944419,-9.61104774475,0.0,0.0
2019/02/01/15:56:00.963502,2149,1549058160,963364308,imu,1233093379.35,0.0,0.0,0.0,-0.00351225491613,0.00177510897629,-0.0293079987168,-0.268832921982,0.274209499359,-9.79579162598,0.0,0.0
2019/02/01/15:56:00.983502,2150,1549058160,983343042,imu,1233093379.37,0.0,0.0,0.0,-0.00568771688268,0.00225943839177,-0.0261860564351,-0.262829303741,0.0465069673955,-9.87764930725,0.0,0.0
2019/02/01/15:56:01.003565,2151,1549058161,3344943,imu,1233093379.39,0.0,0.0,0.0,-0.0131178144366,0.00668133422732,-0.0240417011082,-0.29360127449,0.023127598688,-10.0643873215,0.0,0.0
2019/02/01/15:56:01.023361,2152,1549058161,23243874,imu,1233093379.41,0.0,0.0,0.0,-0.013991641812,0.00927503407001,-0.0229305624962,-0.170675113797,0.254738599062,-10.2027854919,0.0,0.0
2019/02/01/15:56:01.043212,2153,1549058161,43103617,imu,1233093379.43,0.0,0.0,0.0,-0.0105596343055,0.0120442248881,-0.0207594670355,-0.340069711208,-0.0087682120502,-10.1380720139,0.0,0.0
2019/02/01/15:56:01.063310,2154,1549058161,63196233,imu,1233093379.45,0.0,0.0,0.0,-0.0162527002394,0.00690862396732,-0.0170473549515,-0.300710529089,0.319690048695,-9.48136329651,0.0,0.0
2019/02/01/15:56:01.083571,2155,1549058161,83317646,imu,1233093379.47,0.0,0.0,0.0,-0.0163748972118,0.00680897431448,-0.014848805964,-0.318980067968,-0.0926581695676,-9.63900089264,0.0,0.0
2019/02/01/15:56:01.103613,2156,1549058161,103452698,imu,1233093379.49,0.0,0.0,0.0,-0.0184061080217,0.00219647679478,-0.0132052553818,-0.532594442368,0.147890493274,-9.09052848816,0.0,0.0
2019/02/01/15:56:01.123400,2157,1549058161,123189217,imu,1233093379.51,0.0,0.0,0.0,-0.0239682719111,-0.00371535448357,-0.0111010530964,-0.437384843826,0.603353738785,-9.75500488281,0.0,0.0
2019/02/01/15:56:01.143363,2158,1549058161,143105707,imu,1233093379.53,0.0,0.0,0.0,-0.0255642961711,-0.000285657530185,-0.00729483179748,-0.222262591124,0.117728762329,-9.77705669403,0.0,0.0
2019/02/01/15:56:01.164278,2159,1549058161,164097175,imu,1233093379.55,0.0,0.0,0.0,-0.0190849211067,0.00251383171417,-0.00502060260624,-0.33551466465,0.156345799565,-10.1400184631,0.0,0.0
2019/02/01/15:56:01.184255,2160,1549058161,184066605,imu,1233093379.57,0.0,0.0,0.0,-0.0276592597365,0.00604381319135,-0.00397904217243,-0.269836604595,0.0815112665296,-10.2004013062,0.0,0.0
2019/02/01/15:56:01.204440,2161,1549058161,204082423,imu,1233093379.59,0.0,0.0,0.0,-0.022993478924,0.0091102514416,-0.00112919975072,-0.235938027501,0.234133988619,-10.0818805695,0.0,0.0
2019/02/01/15:56:01.224292,2162,1549058161,224003752,imu,1233093379.61,0.0,0.0,0.0,-0.0118830092251,0.0134743731469,0.00219050468877,-0.349346339703,0.397918701172,-9.72965335846,0.0,0.0
2019/02/01/15:56:01.244248,2163,1549058161,244078057,imu,1233093379.63,0.0,0.0,0.0,-0.0158433802426,0.00768168084323,0.00138203054667,-0.351783335209,0.101364381611,-9.80389690399,0.0,0.0
2019/02/01/15:56:01.264162,2164,1549058161,263987658,imu,1233093379.65,0.0,0.0,0.0,-0.0155555168167,0.00879412516952,0.000705390237272,-0.38449460268,0.31429463625,-9.7544336319,0.0,0.0
2019/02/01/15:56:01.284039,2165,1549058161,283900313,imu,1233093379.67,0.0,0.0,0.0,-0.0130522623658,0.00355185754597,0.00326476898044,-0.534920215607,0.155478253961,-9.51368045807,0.0,0.0
2019/02/01/15:56:01.304062,2166,1549058161,303921656,imu,1233093379.69,0.0,0.0,0.0,-0.00835215952247,-0.000507439195644,0.00537946075201,-0.365420520306,0.178831502795,-9.65848922729,0.0,0.0
2019/02/01/15:56:01.324096,2167,1549058161,323934011,imu,1233093379.71,0.0,0.0,0.0,0.00139828771353,-0.00275701237842,0.0024024117738,-0.353177130222,0.0466668047011,-9.89924907684,0.0,0.0
2019/02/01/15:56:01.343951,2168,1549058161,343798544,imu,1233093379.73,0.0,0.0,0.0,0.0132289268076,-0.00267146481201,0.00264206714928,-0.417598903179,0.251202464104,-9.97917079926,0.0,0.0
2019/02/01/15:56:01.363911,2169,1549058161,363716415,imu,1233093379.75,0.0,0.0,0.0,0.0109691852704,-1.686217729e-06,0.00104607315734,-0.357001513243,0.244782879949,-10.0796279907,0.0,0.0
2019/02/01/15:56:01.383864,2170,1549058161,383691244,imu,1233093379.77,0.0,0.0,0.0,0.00394925056025,0.00228074891493,0.000657951459289,-0.289750784636,0.357164055109,-10.0203752518,0.0,0.0
2019/02/01/15:56:01.403950,2171,1549058161,403784984,imu,1233093379.79,0.0,0.0,0.0,0.0101397577673,0.00751545047387,0.000913948286325,-0.226001188159,0.366994410753,-9.80794048309,0.0,0.0
2019/02/01/15:56:01.423964,2172,1549058161,423801167,imu,1233093379.81,0.0,0.0,0.0,0.00115795526654,0.00940524507314,0.00119919981807,-0.208634749055,0.143472760916,-9.71307468414,0.0,0.0
2019/02/01/15:56:01.443964,2173,1549058161,443767334,imu,1233093379.83,0.0,0.0,0.0,-0.00835742522031,0.00948397628963,0.00080813607201,-0.250257700682,0.141144663095,-9.65470218658,0.0,0.0
2019/02/01/15:56:01.463793,2174,1549058161,463688280,imu,1233093379.85,0.0,0.0,0.0,-0.0144775277004,0.00482123019174,0.0013335342519,-0.447054415941,-0.240119814873,-9.52064609528,0.0,0.0
2019/02/01/15:56:01.483743,2175,1549058161,483660036,imu,1233093379.87,0.0,0.0,0.0,0.000392951042159,0.00285418285057,-2.87545844913e-05,-0.44346717,-0.333729833364,-9.62232112885,0.0,0.0
2019/02/01/15:56:01.503754,2176,1549058161,503622934,imu,1233093379.89,0.0,0.0,0.0,0.000604386557825,-0.00338412472047,-0.000845086760819,-0.538472950459,-0.320126444101,-9.81565952301,0.0,0.0
2019/02/01/15:56:01.523728,2177,1549058161,523526791,imu,1233093379.91,0.0,0.0,0.0,-0.000137304305099,-0.0058592739515,-0.00152415782213,-0.371535032988,-0.196495443583,-10.0571699142,0.0,0.0
2019/02/01/15:56:01.543679,2178,1549058161,543414108,imu,1233093379.93,0.0,0.0,0.0,0.010218036361,-0.00495404703543,-0.00367463007569,-0.38453283906,-0.37076023221,-10.0348711014,0.0,0.0
2019/02/01/15:56:01.563726,2179,1549058161,563536911,imu,1233093379.95,0.0,0.0,0.0,0.00714506627992,-0.00708962976933,-0.00346107874066,-0.353406429291,-0.0922540724277,-10.0341672897,0.0,0.0
2019/02/01/15:56:01.583475,2180,1549058161,583350898,imu,1233093379.97,0.0,0.0,0.0,0.0132208233699,-0.00546252820641,-0.00538075435907,-0.455356538296,-0.175442293286,-9.87302970886,0.0,0.0
2019/02/01/15:56:01.603495,2181,1549058161,603325080,imu,1233093379.99,0.0,0.0,0.0,0.00659926375374,-0.00460333190858,-0.00812900159508,-0.345212012529,-0.230682939291,-9.77564239502,0.0,0.0
2019/02/01/15:56:01.623595,2182,1549058161,623407551,imu,1233093380.01,0.0,0.0,0.0,0.002462571254,-0.00550724333152,-0.00947283022106,-0.482467263937,-0.0496458411217,-9.74999427795,0.0,0.0
2019/02/01/15:56:01.643648,2183,1549058161,643457652,imu,1233093380.03,0.0,0.0,0.0,0.0022478159517,-0.0051486059092,-0.0121038565412,-0.375104933977,-0.300921589136,-9.72604846954,0.0,0.0
2019/02/01/15:56:01.663401,2184,1549058161,663261098,imu,1233093380.05,0.0,0.0,0.0,-0.00266652787104,-0.00523652136326,-0.0156133007258,-0.443993538618,-0.260687321424,-9.83561992645,0.0,0.0
2019/02/01/15:56:01.683754,2185,1549058161,683457874,imu,1233093380.07,0.0,0.0,0.0,0.0010298587149,-0.00369434431195,-0.0207705646753,-0.467207103968,-0.260064810514,-9.93380832672,0.0,0.0
2019/02/01/15:56:01.703603,2186,1549058161,703485463,imu,1233093380.09,0.0,0.0,0.0,0.000695192778949,-0.00391831947491,-0.0243392214179,-0.402158051729,-0.473896175623,-9.8228597641,0.0,0.0
2019/02/01/15:56:01.723525,2187,1549058161,723293619,imu,1233093380.11,0.0,0.0,0.0,0.00260002887808,-5.53602585569e-05,-0.0283160097897,-0.513205766678,-0.613601863384,-9.65456867218,0.0,0.0
2019/02/01/15:56:01.743825,2188,1549058161,743419682,imu,1233093380.13,0.0,0.0,0.0,0.00778999412432,0.000943703867961,-0.0320992507041,-0.444225877523,-0.390839070082,-9.66138553619,0.0,0.0
2019/02/01/15:56:01.763245,2189,1549058161,763114457,imu,1233093380.15,0.0,0.0,0.0,0.00578360212967,0.00182660459541,-0.0329780578613,-0.242213651538,-0.348433345556,-9.66594409943,0.0,0.0
2019/02/01/15:56:01.783286,2190,1549058161,783146997,imu,1233093380.17,0.0,0.0,0.0,0.00133233505767,0.00243657827377,-0.0357776805758,-0.348505288363,-0.137259289622,-9.56627464294,0.0,0.0
2019/02/01/15:56:01.803274,2191,1549058161,803046887,imu,1233093380.19,0.0,0.0,0.0,0.00429392838851,0.00181853096001,-0.0368598215282,-0.326590955257,-0.0298661477864,-9.59481430054,0.0,0.0
2019/02/01/15:56:01.823252,2192,1549058161,823071726,imu,1233093380.21,0.0,0.0,0.0,0.00180883647408,0.000505106116179,-0.0371530987322,-0.270484954119,-0.237901568413,-9.62216567993,0.0,0.0
2019/02/01/15:56:01.844585,2193,1549058161,844068703,imu,1233093380.23,0.0,0.0,0.0,-0.00221554585733,0.000472721178085,-0.0375514924526,-0.30372351408,-0.407310932875,-9.79182815552,0.0,0.0
2019/02/01/15:56:01.864212,2194,1549058161,864086065,imu,1233093380.25,0.0,0.0,0.0,0.00092015665723,-0.00225416664034,-0.0388072729111,-0.40630376339,-0.433875381947,-9.79205513,0.0,0.0
2019/02/01/15:56:01.884982,2195,1549058161,884185351,imu,1233093380.27,0.0,0.0,0.0,0.0134874721989,-0.00295544276014,-0.0399033091962,-0.377044022083,-0.351979017258,-9.88391685486,0.0,0.0
2019/02/01/15:56:01.904227,2196,1549058161,904109820,imu,1233093380.29,0.0,0.0,0.0,0.0179618839175,-0.00246745743789,-0.0439151339233,-0.388346880674,-0.38543894887,-10.0244102478,0.0,0.0
2019/02/01/15:56:01.924164,2197,1549058161,923997839,imu,1233093380.31,0.0,0.0,0.0,0.00885483063757,-0.00111425283831,-0.045218128711,-0.40130263567,-0.322449266911,-9.81606483459,0.0,0.0
2019/02/01/15:56:01.944173,2198,1549058161,943957440,imu,1233093380.33,0.0,0.0,0.0,0.0101134581491,0.000575984828174,-0.047185793519,-0.206210777164,-0.387405842543,-9.82228279114,0.0,0.0
2019/02/01/15:56:01.964023,2199,1549058161,963893600,imu,1233093380.35,0.0,0.0,0.0,0.00134116981644,0.002632540185,-0.0493250600994,-0.361350417137,-0.214568197727,-9.71679878235,0.0,0.0
2019/02/01/15:56:01.984001,2200,1549058161,983842605,imu,1233093380.37,0.0,0.0,0.0,-0.00388429267332,-0.000442527001724,-0.0521226525307,-0.456851065159,-0.377000361681,-9.57403182983,0.0,0.0
2019/02/01/15:56:02.004061,2201,1549058162,3911510,imu,1233093380.39,0.0,0.0,0.0,-0.000627288769465,0.00461229914799,-0.0562329441309,-0.395465552807,-0.659922599792,-9.90543651581,0.0,0.0
2019/02/01/15:56:02.024025,2202,1549058162,23777066,imu,1233093380.41,0.0,0.0,0.0,-0.00655522430316,0.00307617755607,-0.0596431158483,-0.468855917454,-0.542458236217,-10.1198863983,0.0,0.0
2019/02/01/15:56:02.043967,2203,1549058162,43818756,imu,1233093380.43,0.0,0.0,0.0,0.0030095372349,0.00231758505106,-0.0602078959346,-0.539645075798,-0.387040823698,-10.1767272949,0.0,0.0
2019/02/01/15:56:02.064162,2204,1549058162,64017352,imu,1233093380.45,0.0,0.0,0.0,0.00855450611562,0.00102411897387,-0.0623724609613,-0.406736254692,-0.381668478251,-9.92346572876,0.0,0.0
2019/02/01/15:56:02.083927,2205,1549058162,83788299,imu,1233093380.47,0.0,0.0,0.0,-0.000624831067398,0.000980144832283,-0.0638411641121,-0.572392582893,-0.251375466585,-9.87288188934,0.0,0.0
2019/02/01/15:56:02.103978,2206,1549058162,103761421,imu,1233093380.49,0.0,0.0,0.0,-0.00551387388259,-0.000962416874245,-0.0617639124393,-0.481959581375,0.0241467952728,-9.38218021393,0.0,0.0
2019/02/01/15:56:02.123941,2207,1549058162,123783403,imu,1233093380.51,0.0,0.0,0.0,-0.0155219994485,-0.00274737132713,-0.0583978444338,-0.301795005798,0.0768523812294,-9.36063480377,0.0,0.0
2019/02/01/15:56:02.143864,2208,1549058162,143681911,imu,1233093380.53,0.0,0.0,0.0,-0.01367014274,-0.00547393644229,-0.0553212277591,-0.389611542225,0.063657194376,-9.57862663269,0.0,0.0
2019/02/01/15:56:02.163833,2209,1549058162,163638972,imu,1233093380.55,0.0,0.0,0.0,-0.0193031206727,-0.00458530010656,-0.0532456189394,-0.376414209604,0.135911092162,-9.29072666168,0.0,0.0
2019/02/01/15:56:02.183808,2210,1549058162,183645840,imu,1233093380.57,0.0,0.0,0.0,-0.0217556301504,-0.00665436219424,-0.0492665991187,-0.338607400656,0.153822362423,-9.87668704987,0.0,0.0
2019/02/01/15:56:02.203806,2211,1549058162,203693062,imu,1233093380.59,0.0,0.0,0.0,-0.0207650996745,-0.00505207246169,-0.0449249558151,-0.38393175602,-0.0660271197557,-10.0136423111,0.0,0.0
2019/02/01/15:56:02.223803,2212,1549058162,223664906,imu,1233093380.61,0.0,0.0,0.0,-0.0155074056238,-0.00188246450853,-0.0436202995479,-0.290206938982,0.023752246052,-9.92103767395,0.0,0.0
2019/02/01/15:56:02.243650,2213,1549058162,243507335,imu,1233093380.63,0.0,0.0,0.0,-0.0157850068063,0.00183650059626,-0.0401160269976,-0.215877354145,0.245408162475,-10.0935554504,0.0,0.0
2019/02/01/15:56:02.263656,2214,1549058162,263560605,imu,1233093380.65,0.0,0.0,0.0,-0.0185989625752,0.0058074304834,-0.0383767522871,-0.287864476442,0.18470312655,-9.94988822937,0.0,0.0
2019/02/01/15:56:02.283684,2215,1549058162,283424247,imu,1233093380.67,0.0,0.0,0.0,-0.0166228860617,0.00503080058843,-0.0370308607817,-0.250476688147,0.249035313725,-9.81529045105,0.0,0.0
2019/02/01/15:56:02.303616,2216,1549058162,303511220,imu,1233093380.69,0.0,0.0,0.0,-0.0149362515658,0.00916642136872,-0.0368951112032,-0.187243297696,0.151743724942,-9.96518707275,0.0,0.0
2019/02/01/15:56:02.323551,2217,1549058162,323416245,imu,1233093380.71,0.0,0.0,0.0,-0.0204081051052,0.00942433811724,-0.0326971821487,-0.326172024012,0.389526277781,-9.72057247162,0.0,0.0
2019/02/01/15:56:02.343529,2218,1549058162,343393345,imu,1233093380.73,0.0,0.0,0.0,-0.0203637890518,0.00854190904647,-0.0315490998328,-0.409293740988,0.374674022198,-9.73496341705,0.0,0.0
2019/02/01/15:56:02.363513,2219,1549058162,363397840,imu,1233093380.75,0.0,0.0,0.0,-0.0123631218448,0.00806907285005,-0.0312912687659,-0.308685600758,0.293147951365,-9.85063648224,0.0,0.0
2019/02/01/15:56:02.383857,2220,1549058162,383679143,imu,1233093380.77,0.0,0.0,0.0,-0.0182416383177,0.00574756832793,-0.0293344948441,-0.492549836636,0.133665770292,-9.74492168427,0.0,0.0
2019/02/01/15:56:02.403426,2221,1549058162,403302816,imu,1233093380.79,0.0,0.0,0.0,-0.0133309261873,0.00261738640256,-0.025744356215,-0.363026916981,0.440663933754,-9.67397403717,0.0,0.0
2019/02/01/15:56:02.423389,2222,1549058162,423160678,imu,1233093380.81,0.0,0.0,0.0,-0.0110475858673,0.00184672081377,-0.0232833810151,-0.301165997982,0.191306322813,-9.82657337189,0.0,0.0
2019/02/01/15:56:02.443213,2223,1549058162,443096339,imu,1233093380.83,0.0,0.0,0.0,-0.0176653247327,-0.00161067070439,-0.0203380659223,-0.330772578716,0.311529815197,-9.75808811188,0.0,0.0
2019/02/01/15:56:02.463552,2224,1549058162,463345261,imu,1233093380.85,0.0,0.0,0.0,-0.0139663293958,-0.00304505415261,-0.0176648981869,-0.353921413422,0.303195506334,-9.85690593719,0.0,0.0
2019/02/01/15:56:02.483185,2225,1549058162,483052260,imu,1233093380.87,0.0,0.0,0.0,-0.0133463386446,-0.00105805404019,-0.0126362023875,-0.112079590559,0.352666258812,-9.98417663574,0.0,0.0
2019/02/01/15:56:02.504379,2226,1549058162,504237319,imu,1233093380.89,0.0,0.0,0.0,-0.0170893073082,0.00243611051701,-0.00961063057184,-0.408724755049,0.289372175932,-9.74441719055,0.0,0.0
2019/02/01/15:56:02.523269,2227,1549058162,523147547,imu,1233093380.91,0.0,0.0,0.0,-0.0155836986378,0.0044694612734,-0.00779074244201,-0.365829229355,0.126531019807,-9.89362812042,0.0,0.0
2019/02/01/15:56:02.544253,2228,1549058162,544099644,imu,1233093380.93,0.0,0.0,0.0,-0.00514423428103,0.00797604303807,-0.00532192178071,-0.336910843849,0.501435995102,-10.143913269,0.0,0.0
2019/02/01/15:56:02.564200,2229,1549058162,564052622,imu,1233093380.95,0.0,0.0,0.0,-0.017710076645,0.00687339482829,-0.00580791756511,-0.415616631508,-0.0942564159632,-10.0819664001,0.0,0.0
2019/02/01/15:56:02.584271,2230,1549058162,584100984,imu,1233093380.97,0.0,0.0,0.0,-0.00891599152237,0.00544172199443,-0.0097034201026,-0.439512372017,-0.364526689053,-9.9059677124,0.0,0.0
2019/02/01/15:56:02.604264,2231,1549058162,604118994,imu,1233093380.99,0.0,0.0,0.0,0.00928624067456,0.0061762901023,-0.0103418463841,-0.391111671925,-0.400428205729,-9.77922821045,0.0,0.0
2019/02/01/15:56:02.624216,2232,1549058162,624052569,imu,1233093381.01,0.0,0.0,0.0,0.00484019331634,0.00172789557837,-0.015618076548,-0.445170849562,-0.506072163582,-9.6251373291,0.0,0.0
2019/02/01/15:56:02.643959,2233,1549058162,643826786,imu,1233093381.03,0.0,0.0,0.0,0.0164446271956,-0.00100943900179,-0.01751239039,-0.378923624754,-0.207575500011,-9.58328437805,0.0,0.0
2019/02/01/15:56:02.664235,2234,1549058162,664001320,imu,1233093381.05,0.0,0.0,0.0,0.0164175275713,-0.00258048693649,-0.0217227637768,-0.380634069443,-0.0201141554862,-9.51799869537,0.0,0.0
2019/02/01/15:56:02.684036,2235,1549058162,683842293,imu,1233093381.07,0.0,0.0,0.0,0.0146488649771,-0.00560057815164,-0.0247180107981,-0.535602390766,0.102574363351,-9.51997756958,0.0,0.0
2019/02/01/15:56:02.704227,2236,1549058162,704136912,imu,1233093381.09,0.0,0.0,0.0,0.00839272979647,-0.00263605010696,-0.027878979221,-0.432690322399,-0.120798036456,-9.83562088013,0.0,0.0
2019/02/01/15:56:02.723859,2237,1549058162,723702623,imu,1233093381.11,0.0,0.0,0.0,-0.00277443113737,-0.0023007162381,-0.0297310613096,-0.370199382305,-0.11340483278,-9.99725627899,0.0,0.0
2019/02/01/15:56:02.743954,2238,1549058162,743753719,imu,1233093381.13,0.0,0.0,0.0,-0.00432500708848,0.00301715219393,-0.0329861938953,-0.296536117792,-0.330017447472,-10.0579357147,0.0,0.0
2019/02/01/15:56:02.764029,2239,1549058162,763848713,imu,1233093381.15,0.0,0.0,0.0,0.00292176706716,0.00195491686463,-0.0361153110862,-0.381247192621,-0.597823321819,-9.99360942841,0.0,0.0
2019/02/01/15:56:02.783998,2240,1549058162,783820316,imu,1233093381.17,0.0,0.0,0.0,0.0139420861378,0.00582949630916,-0.0387073978782,-0.437223702669,-0.5519734025,-9.83758449554,0.0,0.0
2019/02/01/15:56:02.803938,2241,1549058162,803760425,imu,1233093381.19,0.0,0.0,0.0,0.0161064397544,0.0067764124833,-0.0413077995181,-0.325094431639,-0.509079754353,-9.70977878571,0.0,0.0
2019/02/01/15:56:02.823810,2242,1549058162,823582910,imu,1233093381.21,0.0,0.0,0.0,0.0167707968503,0.0035207325127,-0.0439671128988,-0.425184577703,-0.231419712305,-9.63939189911,0.0,0.0
2019/02/01/15:56:02.844137,2243,1549058162,843717804,imu,1233093381.23,0.0,0.0,0.0,0.0155890826136,0.00314068933949,-0.0444873198867,-0.442960441113,-0.097786128521,-9.65178966522,0.0,0.0
2019/02/01/15:56:02.863700,2244,1549058162,863575263,imu,1233093381.25,0.0,0.0,0.0,0.00835974700749,0.00403732946143,-0.0454485081136,-0.351929068565,-0.333419054747,-9.75021457672,0.0,0.0
2019/02/01/15:56:02.884289,2245,1549058162,883673144,imu,1233093381.27,0.0,0.0,0.0,0.00902414880693,0.00699831917882,-0.0458802655339,-0.441447407007,-0.196870207787,-9.62033748627,0.0,0.0
2019/02/01/15:56:02.903710,2246,1549058162,903539705,imu,1233093381.29,0.0,0.0,0.0,0.000695028866176,0.00352983130142,-0.0481030605733,-0.408577889204,-0.290828675032,-9.8273973465,0.0,0.0
2019/02/01/15:56:02.923727,2247,1549058162,923538593,imu,1233093381.31,0.0,0.0,0.0,-0.00203217053786,0.00698320521042,-0.0495664253831,-0.327883213758,-0.254397362471,-9.82484722137,0.0,0.0
2019/02/01/15:56:02.943606,2248,1549058162,943467203,imu,1233093381.33,0.0,0.0,0.0,-0.00585883948952,0.0059566074051,-0.051642332226,-0.505056202412,-0.373746007681,-9.80354309082,0.0,0.0
2019/02/01/15:56:02.963544,2249,1549058162,963425253,imu,1233093381.35,0.0,0.0,0.0,-0.00310860737227,0.00395422335714,-0.0546905398369,-0.403891146183,-0.333696484566,-9.86871147156,0.0,0.0
2019/02/01/15:56:02.983479,2250,1549058162,983348421,imu,1233093381.37,0.0,0.0,0.0,-0.0043538492173,0.00280424254015,-0.0559605360031,-0.451017826796,-0.414251327515,-9.79635810852,0.0,0.0
2019/02/01/15:56:03.003563,2251,1549058163,3380212,imu,1233093381.39,0.0,0.0,0.0,-0.00336460326798,0.00290792435408,-0.0577507577837,-0.547178506851,-0.447542607784,-9.87471961975,0.0,0.0
2019/02/01/15:56:03.023621,2252,1549058163,23463451,imu,1233093381.41,0.0,0.0,0.0,0.00498790247366,-0.00063403591048,-0.0571374706924,-0.370244920254,0.157444089651,-9.90133285522,0.0,0.0
2019/02/01/15:56:03.043433,2253,1549058163,43318598,imu,1233093381.43,0.0,0.0,0.0,-0.00449504191056,-0.000516636879183,-0.0575931370258,-0.452324330807,-0.176346331835,-10.0731334686,0.0,0.0
2019/02/01/15:56:03.063569,2254,1549058163,63426894,imu,1233093381.45,0.0,0.0,0.0,-0.000732542714104,0.000298999948427,-0.0566802732646,-0.270408451557,-0.0564205124974,-10.1197547913,0.0,0.0
2019/02/01/15:56:03.083496,2255,1549058163,83336964,imu,1233093381.47,0.0,0.0,0.0,-0.00286585581489,0.00366735854186,-0.0538948476315,-0.380029052496,0.0355927981436,-10.1514101028,0.0,0.0
2019/02/01/15:56:03.103394,2256,1549058163,103295678,imu,1233093381.49,0.0,0.0,0.0,-0.0165927838534,0.00554666109383,-0.0502866283059,-0.236989438534,0.293095588684,-10.0456962585,0.0,0.0
2019/02/01/15:56:03.124306,2257,1549058163,124172386,imu,1233093381.51,0.0,0.0,0.0,-0.014177987352,0.00682372413576,-0.0468818917871,-0.398032903671,0.153885513544,-9.94938755035,0.0,0.0
2019/02/01/15:56:03.143361,2258,1549058163,143189585,imu,1233093381.53,0.0,0.0,0.0,-0.0238200109452,0.00810801330954,-0.0451072454453,-0.334359019995,0.157604277134,-9.74846553802,0.0,0.0
2019/02/01/15:56:03.163362,2259,1549058163,163222066,imu,1233093381.55,0.0,0.0,0.0,-0.0255176592618,0.00820626318455,-0.0437870137393,-0.326959848404,0.0852862522006,-9.68956375122,0.0,0.0
